accel.x,accel.y,accel.z,gyro.x,gyro.y,gyro.z
1.745369503,0.6622516106,0.5573603265,-0.4901247323,1.451571822,0.2740475833
1.621515598,0.4174684562,0.3516629819,-0.3192467391,1.71562767,0.3876442015
1.031498034,0.3694808165,0.2143675578,-0.1556224078,1.883189678,0.474412322
0.4661691396,0.1572163685,0.2820966937,-0.003740989137,1.943646669,0.5307186842
0.2371492254,0.09639949618,0.453084544,0.128074035,1.900176764,0.5612077117
0.09939816654,0.2524702017,0.7319698744,0.2404620945,1.740793467,0.5532203317
-0.01369710144,0.3271379047,1.182549158,0.335701257,1.541176796,0.513679862
-0.2446313979,0.3918962081,1.287647947,0.3899623752,1.334393859,0.4583308697
-0.2728574485,0.5284907904,1.328943834,0.4062268436,1.176393986,0.3990291953
-0.2883688328,0.6440744411,1.23105746,0.3775680363,1.114672065,0.3332757652
-0.5546949067,0.5789081415,0.8712462432,0.2770949602,1.130501866,0.2753573358
-0.8289328497,0.2015095376,0.7105126604,0.1136759147,1.164156199,0.2411671579
-0.8378332184,-0.1304004038,0.6899690541,-0.03090710007,1.143123627,0.2408460379
-0.7012213927,-0.03099105833,0.6398205831,-0.101626277,1.058712363,0.2691298723
-0.494346821,0.3427428856,0.4406365658,-0.1117155328,0.970033884,0.2989630103
-0.3821322083,0.4892305009,0.2203355263,-0.09123688936,0.8544281721,0.3106204569
-0.5029590204,0.3908694954,0.04024550115,-0.05112941191,0.7759664655,0.291233927
-0.880440188,0.1475324482,-0.1567658482,-0.005113982596,0.753564477,0.2370516509
-1.239919543,-0.05361117868,-0.3316974677,0.05192260444,0.7795194983,0.1553314477
-1.458342513,-0.1218544016,-0.4270160368,0.0974868983,0.8201113939,0.05168814212
-1.640560344,-0.4238584495,-0.5619716197,0.06492396444,0.8937757015,-0.002453142311
-1.466061856,-0.1817547435,-0.5550654936,-0.03598507866,0.901237905,0.0176329501
-0.8787029889,0.3052989979,-0.2314028638,-0.104513742,0.7543518543,0.05627185479
-0.4343526633,0.4449886236,0.07358253808,-0.1469259113,0.5206743479,0.0636267066
-0.217332399,0.2709861016,0.1848445262,-0.1509895623,0.4080769122,0.01216083579
-0.2884095301,0.2359820083,-0.3125923697,-0.2345686108,0.27287063,-0.002877502004
-0.06745937903,0.02776829689,-0.1746288372,-0.2722803652,0.1082636118,0.05288351327
0.05829232223,0.1626610437,-0.04114040416,-0.3381832242,-0.04639201239,0.1264043301
-0.07396437701,0.09736030403,0.000900748232,-0.4446085393,-0.1432667226,0.2162832618
0.1430665548,0.4829699792,0.03330897988,-0.4808791876,-0.192178607,0.2771790922
0.1382711372,0.4391606481,-0.1526835473,-0.4736060202,-0.1523291469,0.2774895132
-0.3346341057,-0.139276661,-0.5871183359,-0.4149285853,-0.009389303625,0.2451169342
-0.7252801676,-0.5439601622,-0.982058734,-0.3298143744,0.1907467246,0.2080754191
-0.9857589037,-0.7001137237,-1.231556642,-0.2742717564,0.4134261608,0.2055304945
-0.860357331,-0.2489262455,-1.203176351,-0.2476582527,0.5352772474,0.2268863171
-0.5107376916,0.3293792539,-0.7838321636,-0.2189038396,0.5092269778,0.2212295085
-0.343827466,0.3653424015,-0.2777589568,-0.228043288,0.4538092017,0.1829176545
-0.2948611905,0.1796235767,-0.0861573575,-0.2810457647,0.4475017786,0.139903605
-0.3327975379,0.06761179311,-0.09467150334,-0.3566423953,0.403265655,0.1088863537
-0.2271276707,0.02267111988,0.1212432839,-0.4344980419,0.3083351552,0.1194702908
0.06786825209,-0.002182896997,0.3590782266,-0.5429129004,0.2527877986,0.1441393644
0.3398296285,0.1208585224,0.3200380096,-0.6075435877,0.1619042307,0.2014127672
0.4971326523,0.2518586457,0.2080336786,-0.6124330163,0.0567529276,0.2281125486
0.1140183011,-0.2007486362,-0.1802484306,-0.5910875201,0.02824458852,0.218472451
-0.190345754,-0.1127139405,-0.5376356353,-0.5641693473,0.04220335558,0.2137148976
-0.2234650565,0.2204172133,-0.6835153479,-0.4942328632,0.03803284466,0.1819910556
-0.3647957274,-0.04996083948,-0.6949912661,-0.4306213558,0.05908264592,0.1195282191
-0.4974129306,-0.08238646066,-0.5924065055,-0.3829595447,0.1140718684,0.05703554675
-0.4893450672,0.1269070088,-0.4543114555,-0.3493912816,0.1962035149,-0.01666925475
-0.4468573401,0.2305688972,-0.3354419149,-0.3032733202,0.2371642739,-0.04898724705
-0.3944032225,0.2436480128,0.005824176109,-0.2596364319,0.2380158007,-0.03566616029
-0.3058881959,0.1621402347,0.392309465,-0.2411649972,0.2453674525,-0.02042275853
-0.3186588302,0.1636808883,0.7393652454,-0.267812103,0.2969439626,-0.03669980541
-0.3517722875,0.1420085702,1.015639517,-0.3144238293,0.3420528471,-0.07722246647
-0.3953223831,0.1308465402,1.398876033,-0.3864028752,0.4508138299,-0.1960683763
-0.4457940947,0.04791369769,1.621113009,-0.4573673308,0.5300218463,-0.1677608341
-0.1870996117,0.3937118792,1.660472375,-0.5162217021,0.6416288018,-0.04930458963
0.2406383096,0.6493862838,1.394676243,-0.5745566487,0.7706648111,0.03515996039
0.1525850554,0.4851983228,0.7878928372,-0.6137882471,0.8278484941,0.009813856333
-0.2291056928,0.1009381625,0.3266045285,-0.6241463423,0.7966479659,-0.05567487329
-0.3340349707,-0.116675976,-0.05215455013,-0.6242526174,0.7419198155,-0.07179452479
-0.08331950372,-0.08119725087,-0.5267255343,-0.5998953581,0.6295482516,-0.03394568339
0.3325646059,0.01562295494,-0.8342401624,-0.5833082795,0.489333272,0.052639734
0.7869239922,-0.02197948436,-1.104903023,-0.5551916957,0.3496448398,0.1452945769
0.8987883301,-0.08032792069,-1.471184313,-0.5240585804,0.1987797022,0.2047884017
0.6310737975,-0.2300864474,-1.645676372,-0.5234827995,0.04000869766,0.219969213
0.1938338884,-0.4791677374,-1.552485463,-0.5527148843,-0.1301387399,0.1976903379
-0.1605623179,-0.6945205068,-1.343669109,-0.5907621384,-0.2702705562,0.1684437692
-0.2079173588,-0.7906275959,-1.413603062,-0.6092982292,-0.3892245591,0.1541241109
-0.1404807761,-0.8186618503,-1.497158712,-0.6116452813,-0.5023421049,0.1408522427
-0.156867555,-0.8408394145,-1.534461146,-0.5800261497,-0.5385891199,0.1352784485
-0.2086281374,-0.7666698703,-1.861201283,-0.4871518612,-0.5186998844,0.141429022
-0.2413870822,-0.6411658602,-2.302323002,-0.3351720572,-0.4677067697,0.1535609663
-0.2517038935,-0.5405232465,-2.576364984,-0.1595246047,-0.4243569076,0.1754984856
-0.2319777411,-0.4603698056,-2.532982939,0.01106944121,-0.4647086263,0.1875134408
-0.1287576051,-0.3846829157,-2.055154999,0.128307119,-0.5576199293,0.1810712665
-0.01626461384,-0.3189011145,-1.413835702,0.1790931374,-0.6342130899,0.1619485021
0.001442892285,-0.3132468151,-0.8200047163,0.1630907357,-0.641441226,0.1386314631
-0.0276335646,-0.3732392192,-0.4461988761,0.1265927702,-0.5839406252,0.1280522048
-0.1255190615,-0.4741672257,-0.1987193223,0.09107872099,-0.5202324986,0.1296000183
-0.2215811425,-0.5692050781,0.05646481454,0.0756559521,-0.4682182968,0.1252499074
-0.2380070843,-0.5726292073,0.2219067212,0.05846445262,-0.3921421766,0.1032274291
-0.2649228561,-0.4387026021,0.2729214536,0.04405961186,-0.2985053062,0.07706236094
-0.2877420061,-0.2535262136,0.3230319307,0.03610741347,-0.2328831702,0.04888505116
-0.3237809955,-0.1267042527,0.4607435343,0.02684607543,-0.1824043542,0.02102730051
-0.3241428145,-0.0770329708,0.5857546464,0.01707653515,-0.1159891039,-0.008670672774
-0.3329170726,-0.05427731444,0.6075660807,0.003160978435,-0.04037165269,-0.04055207968
-0.3082870738,-0.04940247494,0.6431213782,-0.01624654047,0.03570846841,-0.06050608307
-0.2601569568,-0.04907872288,0.6070955405,-0.03982863203,0.08180819452,-0.05737427622
-0.1025116954,-0.020162425,0.5277209751,-0.05775490031,0.09516554326,-0.03772680834
0.03043313219,0.01207943711,0.3487351117,-0.07624955475,0.0760537684,-0.008123450913
0.119568921,0.06544453207,0.1849386342,-0.09915939718,0.001720686443,0.01892068237
0.2143017991,0.04816219256,0.0924567499,-0.1189657152,-0.1073239818,0.04228758439
0.3478817098,0.03303666575,-0.09124386698,-0.1466727257,-0.2188622206,0.08475647867
0.5282227871,0.02843501717,-0.2751858914,-0.1639481187,-0.3499199152,0.134501487
0.6160059922,0.08265702122,-0.3953337813,-0.1925709844,-0.4607242048,0.1845777035
0.590158142,0.128142688,-0.4336164579,-0.2237326801,-0.5310759544,0.2126289606
0.3854644215,0.1004046402,-0.4918284084,-0.2628582418,-0.5516270399,0.2089924216
0.1334771809,-0.02996726824,-0.600713146,-0.2885856628,-0.5121021271,0.1881031394
-0.1645905505,-0.145272102,-0.8110340588,-0.271795243,-0.4417011738,0.1599964052
-0.3836388135,-0.1451927532,-1.068307277,-0.2138071507,-0.3453531265,0.1343181431
-0.489638351,-0.03089497754,-1.340398709,-0.1193610802,-0.2620156407,0.117586039
-0.4875118604,0.09293781142,-1.419880827,-0.00385673414,-0.2008104026,0.1100383475
-0.3356080653,0.08135280676,-1.333010353,0.0743573755,-0.1638015211,0.1207538396
-0.174011582,0.03017667321,-1.043007416,0.09195769578,-0.184029758,0.1474646926
0.005597673877,-0.02663929286,-0.5448696783,0.07876439393,-0.2562328577,0.1841982007
0.1767500671,-0.09093582394,-0.1187257481,0.03670760989,-0.3422500789,0.2241445035
0.2283893612,-0.1866686729,0.1580114644,-0.01628290303,-0.4171037972,0.2616729736
0.234041834,-0.2535335932,0.3008294512,-0.07280243188,-0.4531276822,0.2807117999
0.129917881,-0.2821394369,0.3671183252,-0.1132499874,-0.4331710041,0.2849822044
-0.05813157871,-0.2426340866,0.3051286097,-0.1386276484,-0.390001148,0.2618985176
-0.3046358578,-0.2352509175,0.3408686161,-0.1542662531,-0.3069565892,0.2162037343
-0.5393276801,-0.2875760019,0.359329571,-0.1492851079,-0.1964522898,0.1688946933
-0.5250950105,-0.1851695204,0.2973608983,-0.1380148679,-0.0960822776,0.1305385232
-0.4768753156,-0.1135631778,0.3882920461,-0.11238911,-0.03054016456,0.104506202
-0.4040757446,-0.05737498819,0.4816477907,-0.09037995338,-0.0144307036,0.06266634166
-0.4640471059,-0.09355733155,0.5974824935,-0.09886971861,0.02808367833,0.03295259923
-0.2479502401,-0.2001147953,0.7142588612,-0.1285940707,0.03173886985,0.01552673709
-0.01793605419,-0.1657172895,0.8319049974,-0.1668764651,0.009245587513,0.01443717815
0.1404296304,-0.05189144221,0.9137287096,-0.1932292432,-0.01733702235,0.03585485369
0.2742813438,0.1136399693,0.7996697842,-0.1901759356,-0.004265225027,0.06974633038
0.4368582163,0.2785379783,0.4998743522,-0.1793738902,0.04094167054,0.1187620759
0.4334606829,0.3467744061,0.3245172008,-0.1817844659,0.1519877315,0.1542502046
0.4045265571,0.3060604837,0.2671872939,-0.1692079455,0.2209311128,0.2107931077
0.3509938504,0.1410313227,0.419318468,-0.1661659926,0.3355718553,0.1706294566
0.01231894496,-0.1213932138,0.4422381558,-0.2212241888,0.3711162806,0.1290199608
0.04420417565,-0.5009815098,0.7465209624,-0.2759253085,0.3255994916,0.1406826675
0.3408062184,-0.3448702895,0.9287824864,-0.2818585634,0.1796793193,0.2075589001
0.3802386496,-0.1099878035,0.9640741645,-0.3087824285,0.1107674837,0.2685316801
0.4059223953,0.06994542369,0.5372784925,-0.3209519982,0.06159807369,0.2915339172
0.1958449359,0.1345333024,0.1905360159,-0.3072578311,0.01485362835,0.2667661607
-0.02579816586,0.09428856844,0.116304074,-0.2786565423,-0.03016764112,0.2165794224
-0.1118145075,0.1131200371,0.1670680465,-0.2579729557,-0.01269762032,0.159116596
-0.1603241252,0.1788285539,0.08563771754,-0.2570802867,0.0607627444,0.1097064391
-0.1696137855,0.20743374,0.007921440649,-0.2882036269,0.1635332257,0.08012288064
-0.03149842333,0.1419408387,0.1100929444,-0.3198153675,0.2125132829,0.07795559615
0.05585515821,0.122662978,0.3169406281,-0.3545722663,0.235920608,0.09921082109
0.04787760346,0.1283390874,0.3789870421,-0.378651768,0.2780339718,0.1191800013
0.08230272789,0.1441785894,0.08529518771,-0.3787558973,0.3291123509,0.1337940693
0.12621625,0.2271135874,-0.2770902637,-0.3366457522,0.3385607302,0.1363128871
0.1758202389,0.324505145,-0.5774708021,-0.2579630911,0.2758319378,0.1159925014
0.2134831762,0.3727629069,-0.7177168927,-0.1741145402,0.1874919683,0.0675695762
0.2295025831,0.3784999893,-0.7837135057,-0.1117835119,0.09559937567,-0.01151358057
0.2233922835,0.321750951,-0.7315636317,-0.08283068985,-0.0004219650291,-0.09983491898
0.1524003465,0.2602819167,-0.5558545981,-0.07234922051,-0.1018312797,-0.1601946056
0.1531171164,0.1999028513,-0.3600561317,-0.04353515431,-0.1885043979,-0.1688858271
0.2809361255,0.2995507365,-0.4783160159,0.01545771956,-0.2888006568,-0.1944037825
0.07148761163,0.07415515034,-0.4448533068,0.07782869041,-0.31076774,-0.2247875184
0.005621200883,0.005311239884,-0.6628507455,0.1421387047,-0.3177614808,-0.2363768071
0.05116729266,0.107181039,-0.648244128,0.1861522347,-0.251793921,-0.2204308659
0.1562009078,0.1204314561,-0.6379267321,0.1799308658,-0.1798219234,-0.2026567161
0.2353054242,0.243518797,-0.4494932415,0.1608682126,-0.1611592919,-0.1769071519
0.3959355466,0.08949961713,-0.09962006566,0.1040751413,-0.1023691297,-0.1338702142
0.6762903651,0.3612841391,-0.05839081417,0.05223830789,-0.09166163206,-0.0873927176
0.7233379474,0.5952995965,0.01130699143,0.05666567013,-0.1850648373,-0.05283323303
0.5625806915,0.3221169347,0.1272206048,0.08474018425,-0.2258969545,-0.03895763308
0.466722901,0.3135675714,-0.1908791302,0.1176131815,-0.2273038626,-0.032886751
0.4324263714,0.4241824938,-0.4073685025,0.1503210664,-0.2653255463,-0.03809962049
0.343118587,0.2897130322,-0.2203635834,0.1883571893,-0.3654799759,-0.07352334261
0.1527656727,-0.02744041664,-0.01167056405,0.2150362134,-0.4375421703,-0.1110145301
0.1021501687,-0.1433855942,-0.1786725596,0.2386690378,-0.5163463354,-0.1433045417
0.001937836195,-0.1933313457,-0.10821546,0.2495041043,-0.5285276771,-0.1491973251
0.09906813086,-0.1351439451,-0.2678010418,0.2436340451,-0.4664411545,-0.1386856288
0.2373229015,0.2923603136,-0.4698082998,0.2431216538,-0.395647943,-0.1248087063
0.242857447,0.4838133712,-0.4265764763,0.2673239708,-0.3618867397,-0.1265896261
0.2177238825,0.6360398955,-0.3717132517,0.3316233456,-0.3443940282,-0.127516672
0.3201657276,0.6805356014,-0.3275356718,0.3788454533,-0.2950626612,-0.1049855649
0.5398829759,0.9644533731,-0.3642342942,0.4287434816,-0.2729403377,-0.05828676745
0.64046005,1.089477052,-0.3040776394,0.4705474079,-0.2775214911,-0.02470540069
0.4677335393,0.7183374357,-0.1267138243,0.4902172387,-0.2758674026,-0.01902407967
0.2178479473,0.2740471697,-0.03838438345,0.4704450071,-0.2393459678,-0.01309238747
0.1385785957,0.1180689647,0.03453647585,0.4338603616,-0.2160315961,0.006620863453
0.2005157042,0.1956491211,0.1953302644,0.3834193647,-0.2132998258,0.03916946799
0.2850043978,0.3076115126,0.3297475027,0.3229874372,-0.2454734743,0.07336152345
0.3381159564,0.3330789121,0.4979688109,0.2489821166,-0.3027022481,0.08285398781
0.2939526973,0.2806182917,0.6358686306,0.1851647943,-0.3617876768,0.07273478061
0.2374834989,0.1992366973,0.6849976954,0.1400281489,-0.4035690725,0.04767462984
0.153087452,0.155715024,0.6059878716,0.1192469671,-0.4329045713,0.02776856534
0.1196364332,0.1562753613,0.4774994388,0.1136168912,-0.4364083111,0.01850526221
0.1378076114,0.2320733104,0.3575426876,0.1249260008,-0.4025869668,-0.002184035955
0.1213360768,0.2430292234,0.1147661969,0.1543281078,-0.3554793298,-0.02747241035
0.1237115737,0.2382565291,0.002529226217,0.1978082061,-0.3124607503,-0.03820122033
0.2118076442,0.2757536814,-0.02156476608,0.2402646691,-0.271251142,-0.03559257835
0.2291116841,0.3225847714,0.02200023488,0.2584774792,-0.2423238754,-0.03379814327
0.1934943542,0.3377858477,0.1522287893,0.258913666,-0.2168245167,-0.02981679142
0.1799918255,0.2874416349,0.302251593,0.2206139266,-0.1913663,-0.04054852948
0.1372823454,0.1984361215,0.4159118744,0.1588290036,-0.2001956999,-0.05345784873
0.1230983372,0.2283149808,0.6159399413,0.1055998653,-0.2307125926,-0.07929557562
0.135713854,0.2515932728,0.7076052485,0.05780565739,-0.2476929575,-0.098497428
0.2370197538,0.2382601823,0.5533955145,0.03392189369,-0.2270047218,-0.1104361117
0.2870498591,0.2600280698,0.2933645222,0.0343154259,-0.2038629055,-0.1109995246
0.2855102285,0.2794325891,0.1374181737,0.05974115804,-0.1820787787,-0.1051102132
0.3053134648,0.2960479891,-0.02224690312,0.1100255027,-0.1438541561,-0.0994572714
0.3425618299,0.3234348124,-0.1891425157,0.1584452242,-0.09413266182,-0.09522683918
0.322810543,0.3234259715,-0.2771148136,0.1987174153,-0.04371666163,-0.09357629716
0.2954842177,0.3553226004,-0.2621066296,0.2301003784,-0.004236362409,-0.09637155384
0.2304134874,0.3392883612,-0.2042781255,0.2422307283,0.009030845016,-0.1083071157
0.2314874733,0.2663265123,-0.07970949653,0.2334114015,-0.01316101104,-0.1170787662
0.2992675357,0.2277235907,0.04022738097,0.2138646096,-0.06121160835,-0.1203994974
0.356494859,0.2331714809,0.1589659886,0.1823458374,-0.1165033579,-0.1266424805
0.366363269,0.2298262621,0.2473141341,0.1539601386,-0.1603477597,-0.1406918615
0.3305429639,0.2033449363,0.2910936546,0.1315680146,-0.1873356998,-0.1541472226
0.343046837,0.1653849157,0.2356348023,0.1314004213,-0.196232155,-0.1612698883
0.3774466808,0.1484150762,0.1089911206,0.1561537087,-0.1935389042,-0.1542266309
0.4111789276,0.1584864615,-0.02466857731,0.1931028217,-0.170794636,-0.1374678314
0.4605332526,0.1859966189,-0.1519067177,0.220373854,-0.1453454792,-0.1171463057
0.4231541006,0.1910264297,-0.1343079327,0.2337425202,-0.1400777847,-0.09682009369
0.3140563048,0.1648914331,0.01131166761,0.2475653887,-0.1168094724,-0.1016846225
0.2583216312,0.1250742404,0.04322773183,0.2446291149,-0.102786079,-0.1095972583
0.1969020438,0.08577157305,0.06242752234,0.23467049,-0.113401711,-0.1198424324
0.2296177339,0.0879379573,0.14991116,0.2287193984,-0.1361272335,-0.1116646975
0.3194610134,0.09729659115,0.1945557729,0.2179051042,-0.1616283357,-0.09916009009
0.3654578446,0.101832481,0.1986222917,0.2097987086,-0.1901664734,-0.07853446901
0.4025825103,0.08128829015,0.2049894886,0.1926769763,-0.2300752699,-0.05438998714
0.4408712514,0.05900777702,0.2290209371,0.1608002782,-0.279807657,-0.01820138469
0.4686839719,0.01276347385,0.2820440867,0.1031194031,-0.3262164295,0.01909086108
0.5277952093,-0.06755933227,0.2854331446,0.02795113064,-0.3777928948,0.06048369408
0.5863677367,-0.1178784837,0.3207335906,-0.02883625031,-0.4174953103,0.1001293734
0.5710301746,-0.1231270518,0.2264016945,-0.0634733811,-0.4474024177,0.1278993189
0.4400399151,-0.1064575105,0.1277443364,-0.08708763123,-0.4487076402,0.1438364685
0.2361130508,-0.07683043396,0.01345277129,-0.1023466066,-0.4392472506,0.137740612
0.04673058885,-0.04055339805,-0.03280161488,-0.09954042733,-0.4232022464,0.1027192548
-0.1075493608,0.02365808509,-0.01136836623,-0.07067476213,-0.3701842129,0.05298257619
-0.1823165421,0.06127820617,-0.1071387707,-0.02762476914,-0.2893074751,-0.006076483987
-0.2126235272,0.08236307978,-0.2462444591,0.03472995758,-0.2149059027,-0.04719148949
-0.1341006466,0.1341338913,-0.2565308753,0.1041322052,-0.1685847342,-0.06009477377
0.05577697841,0.173630766,-0.2097819836,0.1529918015,-0.1261192113,-0.04076822475
0.231291695,0.2286794302,-0.1074491518,0.1759740859,-0.0782352984,-0.01429640502
0.2770848569,0.2067433466,-0.01565700334,0.1800943315,-0.03839670122,-0.0003011233639
0.2419718963,0.142530256,0.09770224934,0.1743464321,-0.02620688081,-0.001062787604
0.2226825644,0.08018003665,0.2380523848,0.1484947801,-0.0331467092,0.0001236372627
0.2255761669,0.05981792436,0.3923784386,0.1109420806,-0.04150291532,-0.0004934172612
0.2765296707,0.07371770877,0.441374817,0.06565477699,-0.05132456869,0.009491451085
0.3142541655,0.1048692184,0.5055190801,0.02878411487,-0.06220171973,0.01364678144
0.3126300349,0.103836222,0.5536977124,-0.001133638667,-0.04235678911,0.02070677839
0.3086096568,0.06996551663,0.3890864113,-0.01975472644,0.01220338792,0.03340286762
0.3014408611,0.08995485008,0.09585048399,-0.01497555338,0.03314807266,0.04589430615
0.2051043472,0.1167073941,0.0228472071,-0.003305049147,-0.000714284135,0.04322262108
0.1627944974,0.1136706567,0.08242284714,0.01111311466,-0.0391022265,0.02786575258
0.1914955816,0.1812729513,0.06181552792,0.01920992322,-0.05825434998,-0.003905492369
0.1503884221,0.1731253007,0.05672609583,0.03407001495,-0.05382945389,-0.0363528654
0.1228292379,0.1166917581,0.07025134783,0.05090785027,-0.01854310185,-0.05806801468
0.1762985605,0.0596085194,0.02592939103,0.06314707547,0.03086680174,-0.05418687314
0.2902527468,0.01323576754,-0.005854571247,0.05891957134,0.04713152349,-0.02225530706
0.3701213794,-0.02460179568,0.1110673423,0.03527989239,0.03524238244,0.01022472419
0.3534246943,-0.06607289311,0.2226969948,0.005070060026,-0.006861658767,0.02259457484
0.319044505,-0.08328472467,0.3367711177,-0.02944224142,-0.05372076482,0.01255058032
0.2311504234,-0.07952288792,0.4278624245,-0.06009868905,-0.06506636739,-0.01417157799
0.117441517,-0.09392404597,0.3644201721,-0.08165125549,-0.04307853803,-0.0403848961
0.078510496,-0.1155553014,0.2244406235,-0.08310560882,-0.03455402702,-0.05761474371
0.0995259211,-0.1291577103,0.1153279224,-0.07601308078,-0.04432385042,-0.0626693964
0.2037524211,-0.09807005974,0.03194821292,-0.04889757559,-0.07364525646,-0.05455368012
0.3522115557,-0.05235299531,-0.03394435518,-0.01434232295,-0.1016018987,-0.03993622214
0.3856679812,-0.01556274918,-0.09573357961,0.01432234421,-0.09994381666,-0.02430293709
0.3356587725,-0.02561345695,-0.1677437538,0.03463534266,-0.08180233836,-0.009512036107
0.266229025,-0.08749985815,-0.1170961011,0.03882049769,-0.0662420243,0.002132635098
0.2308239131,-0.1262558514,0.005800795233,0.03532455862,-0.04716184735,0.0138852261
0.2154923606,-0.1299336631,0.1110264258,0.02025692724,-0.02896073647,0.02458713762
0.236483729,-0.1383741592,0.1531587636,0.004925782327,-0.01338547654,0.0406165272
0.2696716763,-0.1412570212,0.1598953784,-0.00789121259,-0.007227449212,0.06255804002
0.3178087161,-0.136996295,0.1792062281,-0.02834407799,0.001999808941,0.09249474108
0.3560665506,-0.1164256545,0.184397367,-0.05982290953,-0.003214926925,0.1294240057
0.4040546287,-0.1094898639,0.2216033543,-0.1011590511,-0.02387049794,0.1655234098
0.4099852609,-0.1342566409,0.3024053222,-0.148070097,-0.06929976493,0.1910133213
0.3742120828,-0.1827145285,0.3948340151,-0.1969139427,-0.1029826403,0.2037990391
0.2640223453,-0.2154300725,0.3713683838,-0.2415509075,-0.1335362792,0.210836187
0.1705643642,-0.2285001281,0.3644213412,-0.2710466981,-0.1608266085,0.2063373476
0.0933710152,-0.2112482568,0.3510042257,-0.2818199694,-0.1681838632,0.1912566572
-0.02679024564,-0.1911509329,0.2273743389,-0.271163255,-0.1590810269,0.172992751
-0.1182815115,-0.1631847753,0.1123193882,-0.2372548282,-0.1389153153,0.1468125433
-0.1514479594,-0.1292338443,-0.05896013849,-0.1828023046,-0.1055952534,0.1232452989
-0.1571513039,-0.08252367717,-0.1817471447,-0.125563249,-0.06948065758,0.1058191732
-0.1168265087,-0.025818478,-0.2302887651,-0.07020351291,-0.02949394658,0.09782999754
-0.1101785951,-0.009080693687,-0.2992717004,-0.02253319696,-0.004358766135,0.09639082849
-0.08652003506,0.0084722064,-0.2182733331,0.01321407966,0.01095745526,0.09295210987
-0.1186418327,0.007856997111,-0.1042600004,0.03701235354,0.02735161036,0.08193355054
-0.1803882592,0.01272109602,-0.06617080052,0.04953312501,0.02965825051,0.06014810503
-0.2105893362,-0.0005677168854,0.04477262318,0.04817544669,0.01348886639,0.03696236014
-0.1745089919,-0.01139905363,0.2220557742,0.02979764156,0.008433664218,0.01420763042
-0.157370664,-0.04033040295,0.2992138327,-0.009177987464,0.01794168167,0.002701442456
-0.1162995074,-0.07001490873,0.3532376839,-0.05822922662,0.02293520793,0.003461228684
-0.1116895476,-0.1285261344,0.417181456,-0.1076313928,0.0136346519,0.008216036484
-0.1357073877,-0.1705846763,0.4046346936,-0.1442798227,0.011215996,0.01381888241
-0.1166339818,-0.1704233483,0.29242578,-0.1593895257,0.01986035146,0.0143834725
-0.1085711964,-0.1252028352,0.09342004198,-0.1482634991,0.01574049331,0.007683283649
-0.125451805,-0.06938274831,0.03020809126,-0.1313537508,0.01645608433,-0.004450610839
-0.196346821,-0.06953925404,-0.02843465185,-0.1016895995,0.01292739622,-0.01892595738
-0.1909014882,-0.06659063337,-0.08102583983,-0.07839652896,0.004443097394,-0.03192271292
-0.1556230531,-0.05194266094,-0.04836041854,-0.05492430553,-0.00781935174,-0.03606604785
-0.1058390315,-0.05967603168,0.0114314946,-0.04334967583,-0.01473478228,-0.03988315165
-0.09631307827,-0.06235124223,0.03836918588,-0.04527114332,-0.0147632584,-0.03544475883
-0.1104155822,-0.09254033653,0.1076636714,-0.06242296472,-0.01363487728,-0.0335752219
-0.1407516472,-0.1109356057,0.1862356883,-0.0749322325,-0.01015919447,-0.03227438405
-0.1659228585,-0.129338766,0.2409124504,-0.09207100421,-0.003702627495,-0.02979551442
-0.1945493797,-0.1698578964,0.2358826395,-0.09853322804,0.003280073404,-0.02694284171
-0.1948091997,-0.1565721523,0.2098427739,-0.1054180339,0.004330956377,-0.02337873168
-0.1893028573,-0.1685715829,0.1840928311,-0.1022202447,-0.0006627673283,-0.02328454331
-0.2177144754,-0.1462534412,0.1593061803,-0.09687954187,-0.005099327303,-0.03111077659
-0.2302835592,-0.1149967177,0.1379915896,-0.08928179741,-0.01130786911,-0.03877547383
-0.2586643254,-0.1144436138,0.1350648885,-0.09713998437,-0.01221547369,-0.04563524574
-0.3001207915,-0.0927940921,0.106918406,-0.1083973795,-0.01427698415,-0.05432840437
-0.3006190781,-0.1132163371,0.1512918007,-0.1146057397,-0.02438208275,-0.06758082658
-0.2744368083,-0.1124767708,0.1577320629,-0.1178925559,-0.03902776167,-0.07760246843
-0.2580577195,-0.115354372,0.1618628791,-0.1250191778,-0.04000354558,-0.09143012762
-0.2472531977,-0.09294183,0.07649345709,-0.1197715402,-0.03845431283,-0.09727547318
-0.2003504124,-0.0980430256,-0.006578209347,-0.105337739,-0.04201096296,-0.09409805387
-0.1767025382,-0.07546769424,-0.05834697503,-0.09563792497,-0.04415983707,-0.08982079476
-0.1924370272,-0.02783361721,-0.08142214567,-0.1018108651,-0.05564178526,-0.0834345296
-0.2314486026,-0.03009257512,-0.0837649094,-0.1105392277,-0.06227166578,-0.08973208815
-0.262338082,-0.06588738047,-0.0864805981,-0.1169435978,-0.06367168576,-0.1085150987
-0.3056596479,-0.04387107123,-0.1284358258,-0.1104096696,-0.04852417111,-0.1351870447
-0.331176403,-0.03325944165,-0.247298352,-0.09552552551,-0.03980471566,-0.1559743434
-0.3117505851,-0.01063201478,-0.3148901253,-0.07149874419,-0.03038798273,-0.1753105819
-0.2544732486,0.01417779763,-0.3438128529,-0.05217165127,-0.02492317557,-0.1881629974
-0.2299995729,0.04177029956,-0.3425263202,-0.03592717648,-0.01909781806,-0.2020758241
-0.1769164914,0.04242394117,-0.3164917153,-0.02463696897,-0.03361630812,-0.2047560215
-0.1416509615,0.03907353476,-0.2596282568,-0.03188509494,-0.05741524324,-0.2127378583
-0.09318675381,0.02500913438,-0.1746732608,-0.04035421461,-0.0761591047,-0.2163661569
-0.05570689058,0.04570500866,-0.1976420485,-0.04845401272,-0.09201300144,-0.2197468728
-0.01682655857,0.08045914585,-0.1726356175,-0.05366209149,-0.1186049357,-0.2242825031
0.02515307289,0.1009744759,-0.09896247853,-0.05113142729,-0.1298610866,-0.2322521061
-0.003728761032,0.08364303659,-0.09977087231,-0.03558549285,-0.1108248085,-0.2445583045
-0.04300855439,0.07214337213,-0.1664677425,-0.01428479888,-0.08829488605,-0.2585236728
-0.02685948408,0.05545359167,-0.1303477969,0.01432767138,-0.07362273335,-0.2589575052
0.04272043989,0.06297726518,-0.05857084691,0.03229209408,-0.05563985184,-0.2566850185
0.1211289825,0.06281491422,0.005294014755,0.03837848082,-0.03379473835,-0.2462147921
0.1625234984,0.06558423281,0.03994447238,0.03725276887,-0.01771375164,-0.2398509234
0.1714771317,0.04376381147,0.09336100526,0.03324204683,-0.0159310326,-0.2344737351
0.1705388279,0.05537161248,0.1851695204,0.02523718961,-0.01274572127,-0.2415779829
0.1464548821,0.06900332053,0.2218143667,0.02384755202,-0.006354933139,-0.2500241697
0.1094291284,0.09985204778,0.1930307553,0.03237019107,0.004852403887,-0.2553965151
0.09612109023,0.1000613797,0.1239922904,0.0477579385,0.01131429803,-0.259693265
0.1292860494,0.1275464757,0.1197574293,0.05643670633,0.01723807305,-0.2607954443
0.1876013506,0.1364858612,0.1525876857,0.05397674441,0.0280584991,-0.2524983585
0.2280374973,0.1173207767,0.1618400827,0.04026359692,0.03480401635,-0.2453208864
0.2536658778,0.1122479304,0.2193774949,0.03267731518,0.03646050394,-0.2371529639
0.2804448166,0.1068009171,0.2225397584,0.02332323231,0.04662339389,-0.2304814756
0.2783964875,0.08721833779,0.1341477737,0.0254532285,0.06089021266,-0.2215087563
0.2914495919,0.08921725652,0.03493161265,0.03068981133,0.06795004755,-0.2073450983
0.2998450433,0.09838329041,-0.02827975354,0.0377474539,0.06966432929,-0.1924646795
0.2654431901,0.1172554564,-0.04916121353,0.03635960817,0.05981818587,-0.1851106435
0.2186820966,0.1227830607,-0.01030921257,0.03380297497,0.03594507277,-0.1889527887
0.2330721122,0.09753098443,0.01889057843,0.02416293509,0.005979625043,-0.1928447187
0.2238078969,0.06572466419,0.0429758029,0.01615720801,-0.01913025603,-0.1950162649
0.2292097011,0.02904379672,0.04936930332,0.009245370515,-0.034577135,-0.1918410957
0.2389931362,0.0369006477,0.04697217906,0.009571608156,-0.04330111668,-0.1801455468
0.2564970096,0.05231383234,0.03063713033,0.01800535992,-0.03799150884,-0.1620020717
0.2469573201,0.05008607329,0.008769581911,0.0337931104,-0.02242293209,-0.1448601037
0.2356103985,0.05312690229,-0.02721417014,0.05320990086,-0.006965746172,-0.1366369575
0.2008033986,0.02243343867,-0.009520108017,0.06570651382,0.01115546655,-0.1262173355
0.1495323716,0.02108480054,0.01203004501,0.07756789029,0.03027730621,-0.1267856359
0.1084022422,0.02602342599,0.03333820598,0.07538276911,0.03555835038,-0.1287406683
0.04891955026,0.05526734839,0.1425023451,0.06610678136,0.03053655848,-0.1401919127
0.006239058786,0.05285626866,0.229233703,0.05215793848,0.01983704418,-0.1548017561
0.06064564389,0.03969685429,0.2097042422,0.01964713447,0.0003339159302,-0.1600750834
0.1122605159,0.01610372419,0.2183995898,-0.01106763538,-0.02945567109,-0.1571919322
0.1445923944,0.03399981169,0.2058580882,-0.03021769784,-0.05152170733,-0.1497114301
0.139476257,0.0433093457,0.115211018,-0.03801969439,-0.06314667314,-0.1494190097
0.1495312573,0.0566357872,0.02355447859,-0.03146790341,-0.07375317067,-0.1411046088
0.1441443218,0.08230448146,-0.09937865812,-0.01190751884,-0.07250467688,-0.1396555752
0.1536961219,0.1302770697,-0.1841267333,0.0184183456,-0.06201602891,-0.1374419034
0.1232094603,0.1219246903,-0.2086374897,0.04583985358,-0.03821802139,-0.1477241069
0.08298587872,0.1300378541,-0.2148047802,0.07303860039,-0.01074132044,-0.1545385718
0.0661377933,0.1232037703,-0.1903022071,0.0950134024,0.01067049429,-0.1622985005
0.1025619461,0.1357546974,-0.08580722888,0.1063335016,0.01801426895,-0.1591353565
0.1609893294,0.1315680594,0.04067337117,0.09898050874,0.01460169256,-0.150416702
0.1851922985,0.1132146566,0.186788646,0.08020209521,0.006758833304,-0.1399429739
0.2162061349,0.1000789153,0.2736614583,0.05216513947,-0.009517075494,-0.1340557933
0.2258909868,0.05056720787,0.343882411,0.02138331346,-0.01683615334,-0.1289983094
0.2209809115,0.03783317931,0.3424579312,-0.005042434204,-0.02417369559,-0.1156755835
0.2179764142,0.06423742131,0.260848154,-0.02853443474,-0.03028028458,-0.1087719202
0.2123936457,0.08758505221,0.1726660126,-0.04077991843,-0.04348796606,-0.1051079482
0.1738630587,0.1104870582,0.06316109731,-0.03897510096,-0.06767722964,-0.112379916
0.1741659141,0.1442521844,-0.01673895335,-0.03343705833,-0.08651190251,-0.1187304929
0.185793461,0.1554313847,-0.07250526424,-0.02566866763,-0.0951429829,-0.119558394
0.1962083259,0.1360215317,-0.1126478895,-0.01877613924,-0.108485952,-0.1116544008
0.2082249634,0.138839877,-0.06792436619,-0.01015189756,-0.1042411774,-0.1037052199
0.1994782875,0.1482183846,-0.06765256351,0.0005082036951,-0.07724843919,-0.09290316701
0.1753838933,0.1500550255,-0.09119535166,0.02167241648,-0.03999517113,-0.08767856658
0.136556972,0.1193891805,-0.1353477971,0.04426161572,-0.009136859328,-0.08251416683
0.1436968247,0.1136295941,-0.1345475867,0.06195508316,0.008033167571,-0.07174859941
0.2223160691,0.1517571532,-0.081190675,0.06532291323,0.0004894970916,-0.05880803242
0.2713592093,0.1644322181,-0.04657470417,0.05198058486,-0.03438538685,-0.04225425422
0.3440325601,0.1205592472,0.03491349247,0.01724097878,-0.09402927756,-0.01488601509
0.4473248114,0.08391469314,0.1173749181,-0.02755294368,-0.17069152,0.02069708891
0.5175335622,0.05424553106,0.1522685368,-0.0800928548,-0.2693893611,0.05944102257
0.5440322776,0.07668992951,0.1490080737,-0.1339641362,-0.3867189884,0.08500726521
0.5698127982,0.04511866014,0.2008645177,-0.193267405,-0.4969863892,0.103864044
0.662146835,-0.007140811665,0.1574696126,-0.2486483753,-0.59079355,0.1181756034
0.7282797878,-0.05412906507,0.08643032922,-0.27271083,-0.6670872569,0.129822135
0.7243862144,-0.07531411112,0.05085106632,-0.2619203627,-0.683750391,0.1392633915
0.6150314481,-0.03837422738,-0.06065759006,-0.2224911898,-0.6348214746,0.1422064602
0.4533535702,-0.001157864798,-0.1778624122,-0.1562089175,-0.5249166489,0.142918244
0.2416295857,0.04753690027,-0.2672890007,-0.0796393007,-0.3907561898,0.1300929934
0.05922689967,0.07480579627,-0.3076981679,0.00905847922,-0.246242404,0.1135319844
-0.03802552354,0.06810958656,-0.268097979,0.07620182633,-0.1318042427,0.100293681
-0.06148636903,0.07734992779,-0.1054956797,0.1113935709,-0.05520202965,0.08702495694
-0.03389492655,0.06812500333,0.1454401521,0.1066299751,-0.01344233006,0.07278237492
-0.01059756452,0.06578304331,0.3893997151,0.06380952895,0.02407489531,0.05612173304
0.03494100153,0.05635492443,0.5172983652,-0.0003659983049,0.03960565105,0.03907191008
0.05835362397,0.07571757735,0.6163759946,-0.06611663848,0.02879406139,0.02948538586
0.1696899194,0.08466733813,0.6429542049,-0.1206267551,0.00843020156,0.0319128558
0.3012883374,0.1282107118,0.5064408711,-0.1520713568,-0.01117649116,0.04096529633
0.3614050256,0.1745250115,0.3222983557,-0.1644659787,-0.02833124436,0.05534236878
0.4188290405,0.2030813169,0.1884311525,-0.1558490545,-0.02271680906,0.07301782817
0.3863854088,0.1947786219,0.007334580672,-0.1416584104,-0.01353129931,0.09408716112
0.3564048426,0.2013915372,-0.08234744382,-0.119117938,-0.01241863053,0.1101489514
0.3497418411,0.2091582257,-0.05732932242,-0.0991133377,-0.00477589108,0.1162462607
0.3280847936,0.172452443,-0.03871639189,-0.08579605818,0.007817694917,0.1217132881
0.2524461267,0.1252380526,-0.04630523958,-0.07569815218,0.03334942088,0.1207771897
0.1487733516,0.116950336,-0.07197393384,-0.06306931376,0.06168488786,0.1112895831
0.04062847258,0.1278463355,-0.09153378984,-0.04752418026,0.07297375798,0.09667069465
-0.04759001869,0.1534307124,-0.007958265528,-0.03028507158,0.07373769581,0.07663939148
-0.05284187481,0.1215991116,0.009320786053,-0.01383578964,0.06104054302,0.05541586131
0.02537274352,0.05439290364,0.06653028148,-0.00887026079,0.03890953958,0.05203345418
0.1415522778,0.01889649672,0.1434112766,-0.008585568517,0.02305547334,0.06095344573
0.1962749614,-0.0144924896,0.1788631137,-0.01582602598,0.01861552522,0.08313734084
0.198274355,-0.03038710109,0.2263777291,-0.03601465002,0.01836359128,0.1099202186
0.1375021621,-0.02711407077,0.2720914325,-0.04627774656,0.02398508415,0.1210029498
0.06055117054,-0.0345527694,0.2202577849,-0.05069380254,0.01775195822,0.11629235
0.05793105117,-0.07453297068,0.1780722556,-0.03425350785,0.006429922301,0.1082123965
0.04297119979,-0.09270086086,0.1534901875,-0.01493121032,0.005334564019,0.1047060788
0.02774100703,-0.04022555434,0.1095674592,0.008494553156,0.02273871563,0.1094468385
0.006640826254,-0.01201813538,0.0817301887,0.01935172826,0.04109881446,0.1120434254
-0.0525663458,-0.04076353367,0.1204874971,0.01845498011,0.05173137784,0.1153581589
-0.1156486423,-0.09835318753,0.2416980478,-0.01564413309,0.04531848431,0.1122217551
-0.1545387833,-0.1352873722,0.3454103512,-0.06535857171,0.03628312796,0.1025618762
-0.1560394336,-0.1605067152,0.3483060727,-0.10819152,0.02174573205,0.08978456259
-0.10304825,-0.1502098507,0.2882826889,-0.1329808235,0.01525816321,0.0838432163
-0.1033378806,-0.1093994822,0.1757031884,-0.1407503337,0.02029872686,0.08355425298
-0.09304079687,-0.1072805903,0.02793780824,-0.1271303743,0.03221299872,0.08558426052
-0.07401523041,-0.09918225876,-0.07641513116,-0.1015070379,0.04158945754,0.09368240088
-0.03792790839,-0.08447283848,-0.1351478906,-0.08903560787,0.04777477682,0.1041436344
-0.05855700105,-0.07592866282,-0.1433335352,-0.06250786036,0.05057695508,0.1062645689
-0.1165590716,-0.07726641423,-0.1542827992,-0.04010180384,0.05595330894,0.09317932278
-0.1453746856,-0.09380261155,-0.1965858174,-0.01212263294,0.03880468011,0.08131466806
-0.1489883095,-0.1051261888,-0.1581517496,0.006522995885,0.02152770199,0.06666620821
-0.1653668321,-0.07256532386,-0.0807528681,0.012507651,0.02417754754,0.04751488194
-0.1883733579,-0.06123261347,-0.08846504992,0.01178415492,0.03783816844,0.03620119765
-0.1763265079,-0.08147957494,-0.08923135811,0.008835769258,0.03480296209,0.0304706078
-0.1104788019,-0.09700301503,-0.01663783107,-0.004473242909,0.01686951332,0.03625404462
0.001088598954,-0.1197620324,0.05664484729,-0.02657588199,0.01018817537,0.04714477807
0.05119673795,-0.1314427525,0.01847264528,-0.05068009719,0.006733078044,0.06584402919
0.03394965241,-0.1362308636,-0.0161579386,-0.06899465621,-0.01072101295,0.07887114584
-0.0205725767,-0.1035509023,0.01414484521,-0.06912203133,-0.02870284021,0.07812731713
-0.1090969921,-0.0958534066,-0.00320142639,-0.06207210943,-0.04204953834,0.05850567296
-0.1821003421,-0.1081901795,-0.09801496855,-0.04926680401,-0.04368060827,0.03541722149
-0.210518262,-0.08658741948,-0.1029886653,-0.0394394733,-0.04645242542,0.01834342815
-0.1664510471,-0.07470270122,-0.07856324911,-0.03015077487,-0.04179618508,0.01474381145
-0.08442319065,-0.05888385838,-0.09187631966,-0.0212590117,-0.02939277887,0.01849008165
-0.0396384021,-0.05797339248,-0.09352584044,-0.01545325574,-0.0241728574,0.02654754743
-0.0132273285,-0.04631064641,-0.008569675425,-0.006792122498,-0.01592238247,0.03500548005
0.0248343258,-0.0435066949,-0.007751929301,0.009569068439,0.00003085797653,0.04333941638
0.02131700186,-0.02626023042,-0.01885726068,0.03012840636,0.01519090123,0.05568343401
0.0477359665,0.006665083912,-0.01239361763,0.0456965901,0.02721166611,0.06548712403
-0.01424490805,0.0580948269,0.05581774881,0.05582325906,0.03940867633,0.0608356446
-0.1273990301,0.06168729843,0.121913146,0.06238128617,0.04854860157,0.03627283499
-0.1940911511,-0.007532295201,0.1805406915,0.05989442766,0.04063608497,0.007443585433
-0.1774567175,-0.01210318331,0.2445435004,0.05338460207,0.01675341092,-0.007520214655
-0.04398614898,0.001417465582,0.3011807489,0.05444933102,-0.005198227707,-0.003211752279
0.0621484862,0.006568199409,0.1349526603,0.08041606843,-0.05479565635,0.009902659804
0.2254731084,0.06785210467,-0.0005377601385,0.2211990207,-0.1831688136,0.03132752329
0.3308996684,0.3326919586,0.23988603,0.4252517521,-0.0649151504,0.06466713548
-0.1540581967,0.4852428925,-0.3465226964,0.5979591012,0.3343417048,0.06551721692
-0.87843199,0.02329633911,-1.036776997,0.6853436828,0.660620153,0.04164367542
-0.9502272793,0.08953647854,-1.041264956,0.6722662449,0.8051459193,0.008509426378
-0.6931455652,0.1678987252,-0.2806044093,0.5672440529,0.8046188951,-0.008823029697
-0.3692465328,0.209850738,0.1244008712,0.3877491057,0.6461837292,0.005660837516
0.01065777941,0.03709164023,0.4279793288,0.1591372639,0.3468831778,0.05809001252
0.5254775435,-0.2125452378,0.6124345635,-0.05576837808,-0.08484266698,0.1346684098
0.9051614453,-0.1217743221,0.870574043,-0.1691533327,-0.5330041051,0.188776657
1.038612834,0.3199841605,1.095506834,-0.2146313339,-0.8167585731,0.1613951027
0.7535205389,0.2806193146,1.136416937,-0.2610561848,-0.7712303996,0.09554627538
-0.007854933018,-0.08136690835,0.6036965458,-0.3028206527,-0.5123490691,0.04137279093
-0.6807873842,-0.4054476905,-0.1433990016,-0.2819147706,-0.2347156852,0.0221423842
-0.7715332386,-0.4497968276,-0.5212655153,-0.1863802522,-0.06608912349,0.02667561546
-0.4549846785,-0.2542127345,-0.4640186105,-0.05889734253,0.02942310274,0.0367102772
-0.078796656,-0.05127111836,-0.4030401179,0.05788306892,0.1257523,0.04357004538
0.05389350275,0.03494366841,-0.6111907009,0.1521658152,0.1577992737,0.06047178432
0.1792682787,0.06938055635,-0.4969581725,0.2143386453,0.09455613047,0.06778429449
0.3819358089,0.04003741136,-0.08165712347,0.2361986935,-0.02714015171,0.06600973755
0.4728524533,0.02242028693,0.3145376586,0.2206985652,-0.1320607066,0.05474909395
0.4590992743,0.0189278417,0.5521890614,0.1940008402,-0.1920421422,0.03205063194
0.3832506179,-0.01284559918,0.5849667108,0.1692331731,-0.1882452667,0.01424366981
0.2611568546,-0.02014423175,0.4617886595,0.1567242444,-0.1261868328,-0.001967597753
0.09637878218,0.01744870906,0.2497983522,0.1668003052,-0.04544297978,-0.02203718014
-0.06362349066,0.06930091524,0.1146533841,0.2178716809,0.05804360285,-0.05397254974
-0.1206815584,0.1222752573,-0.05402969635,0.2978373468,0.1434128284,-0.08179858327
-0.1521846214,0.1823064591,-0.1352659641,0.3989781439,0.2454868257,-0.1137036607
-0.1632435015,0.2906133238,-0.3038818245,0.522801578,0.3594197929,-0.1387293786
-0.1133159981,0.4396285578,-0.5915022501,0.6832087636,0.4780381322,-0.158272475
0.0692671043,0.6449054851,-0.8852771066,0.8773965836,0.5766291618,-0.1578522176
0.2289983782,0.761466018,-1.0378192,1.053628564,0.6602607965,-0.1399562508
0.3301515169,0.7737789717,-0.9795704243,1.163155556,0.7489888072,-0.08725150675
0.3882417042,0.7633528547,-0.8589186765,1.17383635,0.8202285767,-0.007067979313
0.475216552,0.6253133343,-0.566146275,1.132459879,0.8458124995,0.07525271922
0.5671344824,0.4514971287,-0.1901402945,1.068270206,0.7759877443,0.2091651708
0.9025568889,0.8979046791,0.3381190252,0.9480580688,0.6516489983,0.3434470892
1.197530308,1.074176607,0.8750432974,0.765929997,0.5982207656,0.367859453
0.4690364752,0.05416135991,0.8846808943,0.5535266399,0.4981120527,0.3627413809
0.2644242224,-0.03514277118,1.319548814,0.3432219326,0.3435278833,0.3394795954
0.1389640879,-0.1255954878,1.681788719,0.1518093646,0.1773322523,0.3156480193
0.06875555632,-0.06913856429,1.675866928,0.004148810636,0.04779961705,0.2933801711
0.1064904264,0.09864376797,1.410889127,-0.09670297056,-0.02202047966,0.271309495
0.1290761695,0.2546541216,0.9372533776,-0.1447554529,-0.02504185587,0.2698605061
0.196169784,0.3299636296,0.5849860001,-0.1591708809,0.009530236013,0.2692045569
0.1252005337,0.1956745478,0.4803016368,-0.1290433407,0.1135514006,0.218204543
-0.1753437805,0.1632929119,0.339316126,-0.1071569547,0.2570198774,0.1799746007
-0.03364584716,-0.1541217634,0.2492927407,-0.04168119654,0.3506600261,0.1997152567
0.3218249295,-0.4133616054,0.2141010158,0.06619972736,0.3986978531,0.2414443344
0.259326132,-0.3317094504,0.06931961994,0.1513597071,0.4252448976,0.2514360547
0.1139743889,-0.2171377532,0.001416296539,0.1831895411,0.4566550255,0.2367282063
0.1755790506,-0.4119499851,0.01744856293,0.1924566031,0.3632282615,0.1861340553
0.07324019092,-0.6375900475,0.2777694782,0.1736538857,0.1440711617,0.07103463262
-0.5168750618,-1.11453989,0.6294856515,0.03456730023,-0.01730243303,0.02969780192
-0.1046808196,-0.5276601848,0.8802735993,-0.1272902936,-0.1303296536,0.06648538262
0.6734248926,0.3244736539,1.056969306,-0.2254282832,-0.2554345429,0.1026584953
0.8475036947,0.2289367659,0.9979963078,-0.2731755674,-0.3112916648,0.1205844954
0.5881893627,-0.1919974667,0.6580927373,-0.2832199931,-0.2876774073,0.143443495
0.3812302545,-0.1841034986,0.3528150745,-0.2580432594,-0.2177457362,0.1632171869
0.2246157975,0.03664206983,0.1159609596,-0.1919003874,-0.1212891787,0.1376201063
-0.1008621381,0.1197887012,-0.1058095679,-0.09354612976,-0.02316926979,0.0659275502
-0.5174294443,0.06578443155,-0.2615823135,0.02528884634,0.05943255872,-0.03363962471
-0.8111760976,0.09438055757,-0.2861158662,0.1379663944,0.1683851331,-0.1326604784
-0.6558306376,0.2191125604,-0.2318038458,0.2226688415,0.314568907,-0.1953899115
-0.254687622,0.3047103843,-0.119322545,0.2718662024,0.4280733764,-0.2157982588
0.2025798702,0.2630902338,0.2170937679,0.2790634632,0.4685246348,-0.2096322477
0.5049979789,0.2255762034,0.6952490403,0.2480863631,0.4810239375,-0.1891147345
0.6225907044,0.3178986594,1.068235381,0.1976065487,0.516751349,-0.1745879352
0.6983921606,0.4411873316,1.246549628,0.1592823267,0.5436335802,-0.1830226928
0.689557989,0.5755079776,1.424184077,0.1240394637,0.5480721593,-0.2272085249
0.5709537484,0.7562700568,1.669953904,0.08624654263,0.5021675229,-0.3055949509
0.3990239411,0.816763104,1.93542095,0.06857407838,0.408703357,-0.3809605241
0.2932793281,0.8737344067,2.237580189,0.05564149469,0.4154070616,-0.4505345523
0.4884500911,1.015304001,2.172293185,0.05490299314,0.4597430527,-0.4285458028
0.7521051922,1.346161803,2.05656545,0.08129464835,0.5074285269,-0.3837349117
0.8700454891,1.564444196,2.205233332,0.1087969914,0.7189772725,-0.3440508246
0.7612989909,1.615836822,1.958511903,0.1276010424,1.016100049,-0.3396030962
0.5585282013,1.458262288,1.73177177,0.1254820228,1.248244166,-0.3631511331
0.3639538698,1.321240712,1.89478908,0.08251351863,1.377044201,-0.4032689929
0.2426549102,1.335669489,2.223034946,-0.01368498988,1.432066321,-0.4429232776
0.3450581768,1.398580995,2.44945593,-0.1112988964,1.432442665,-0.4688973725
0.4481691533,1.447139421,2.323389171,-0.2082981467,1.428896904,-0.4776467085
0.4176818067,1.424747848,1.985880972,-0.3003787994,1.397579193,-0.5061172247
0.2297491052,1.335361592,1.680069056,-0.3834407926,1.364230871,-0.5532192588
0.1353108261,1.24445251,1.317708154,-0.4566667974,1.349491358,-0.5966458321
0.1131106847,1.263713529,0.8971148439,-0.4980973303,1.343734026,-0.6232767105
0.03509761687,1.225297289,0.4043739969,-0.5090727806,1.371687412,-0.655192554
-0.009261457081,0.9862351429,-0.1019786115,-0.5036696196,1.432756186,-0.6609681249
0.05491729284,0.8870227813,-0.5327238979,-0.5085322857,1.469792604,-0.6529911757
0.09785919347,0.8413404959,-0.7027589775,-0.4940719604,1.494399548,-0.6537309289
-0.005321487284,0.7306330729,-0.9852040463,-0.514056623,1.435692191,-0.6589169502
-0.1112175645,0.5629081699,-0.9940823493,-0.5863298178,1.317544222,-0.6340546608
0.1456724995,0.2352687454,-0.9822644857,-0.7090040445,1.147713304,-0.5529254079
0.6133849961,-0.08319090891,-1.19779758,-0.8287807107,0.8882256746,-0.444145292
0.8843170294,-0.2716568405,-1.320909581,-0.9364304543,0.5760923028,-0.3073640168
1.148634321,-0.4951423553,-1.456110078,-1.023495913,0.2846101522,-0.1700858474
1.181069148,-0.6184947403,-1.77387196,-1.057986259,0.05735544115,-0.05400051177
1.037277348,-0.6916906902,-2.232984678,-1.012110353,-0.1009005681,0.03014774248
0.8185200307,-0.7907297411,-2.756591788,-0.8910699487,-0.1857326478,0.1005486697
0.5975199029,-0.7718502686,-3.259632495,-0.6960647106,-0.1723426729,0.1706871241
0.4074789771,-0.6442804851,-3.818255973,-0.4436715841,-0.1261096746,0.2404142767
0.2451914429,-0.6125176387,-4.227614188,-0.1810351014,-0.1086074859,0.2996925116
0.07866027974,-0.8194979358,-4.150820287,0.006883668713,-0.1059709489,0.3230242133
-0.2808621835,-1.080293191,-3.581303659,0.09876211733,-0.08532283455,0.3211098909
-0.5538157858,-1.267372928,-2.887076363,0.1344047934,-0.01227152348,0.3246276677
-0.4482625307,-1.358466281,-2.438210898,0.1512243301,0.07603051513,0.399100095
0.02969225069,-1.124441837,-2.125448432,0.1658373624,0.01286460273,0.4647478163
-0.2783823494,-1.568375106,-1.028639283,0.09248138219,0.01981463656,0.5050151348
-0.4633496252,-1.783449935,-0.6225532219,-0.01007561758,-0.001853641355,0.5248362422
-0.6111860247,-1.665534773,-0.1691138731,-0.1256433427,-0.1144176871,0.5111426115
-0.9740963768,-1.605397261,0.4244464785,-0.26096946,-0.2109114677,0.4583565891
-1.273661799,-1.463297944,0.595505056,-0.3443798721,-0.2585846484,0.3674688637
-1.465498669,-1.423501648,0.2382780102,-0.3524106443,-0.2567864656,0.2762830257
-1.33081255,-1.332168057,-0.4344663528,-0.2815158069,-0.2431952506,0.2327196449
-1.112282612,-0.9788847071,-0.7985767283,-0.1635210216,-0.2129822075,0.2043436766
-0.8765443496,-0.7932497611,-1.14071668,-0.0683343187,-0.1918194145,0.1849140823
-0.7419391875,-0.8760280706,-1.026609239,-0.01703731157,-0.1960700899,0.1965022981
-0.5959273731,-0.8109991336,-0.6453881541,-0.0192171745,-0.2054237723,0.2096585035
-0.5617471633,-0.7661858862,-0.1754781475,-0.06194120273,-0.1957572997,0.2188895494
-0.5151368033,-0.7261950904,0.07217384033,-0.09838304669,-0.1773872674,0.2313024402
-0.5171814609,-0.6681625151,0.156986213,-0.1301540285,-0.1353045255,0.2269282043
-0.6402446537,-0.5183521851,0.06206628781,-0.1392528415,-0.1063671336,0.1971895695
-0.7592229153,-0.3439382328,-0.05613923585,-0.1210426837,-0.1100034118,0.1453916132
-0.7721171759,-0.2518159025,-0.1103413662,-0.09375445545,-0.1194256246,0.08625750989
-0.726872259,-0.1521536782,-0.2006605195,-0.06743124127,-0.130748868,0.05896357447
-0.5564028797,-0.003056976418,-0.2714034503,-0.0340991877,-0.1305258274,0.03477536887
-0.5446998746,0.09976480789,-0.343734527,0.004097469151,-0.1361994296,-0.009003002197
-0.533613248,0.09782112648,-0.3176017223,0.02994743735,-0.09786697477,-0.0450640358
-0.581653933,0.1716148231,-0.2825555434,0.03747113422,-0.0213623438,-0.09316126257
-0.7470762582,0.2877438327,-0.1885270141,0.03260540962,0.006241083611,-0.1659890413
-0.7820818128,0.3826599585,0.08120353448,0.002801444149,0.005086603109,-0.2477781773
-0.742285809,0.4686454666,0.3204623725,-0.0531315431,0.01863312908,-0.3202773035
-0.7626525975,0.5770911552,0.4237444678,-0.1169339567,0.01649514399,-0.39760831
-0.7558572383,0.4662990496,0.5208645333,-0.202526167,-0.01902091876,-0.4655985534
-0.5837745785,0.4482332315,0.602434563,-0.2901827693,-0.02053785697,-0.5391178131
-0.1507183847,0.7959218299,0.2736415846,-0.2761396468,-0.263102591,-0.6389183998
-0.2927890604,0.5432847472,0.6646966656,-0.2364564389,-0.3490100503,-0.6727650166
0.007022153722,0.5305121401,-0.03867547535,-0.1473969072,-0.2030325681,-0.642549932
0.3435930727,0.7068966619,-1.054777933,-0.03811142221,-0.04898255318,-0.6023231149
0.306704773,0.5526151778,-1.13625327,0.01653364114,0.1437867284,-0.5744140148
0.312252178,0.3942226052,-1.015123968,0.01482974924,0.1766232252,-0.5676157475
0.02932341738,0.1835679304,-0.1514127967,-0.05761202425,0.1497033387,-0.5894409418
0.1246811494,-0.02998392711,0.2586287244,-0.1624154001,0.1354815364,-0.5964778066
0.2083738704,-0.1696340245,0.355778016,-0.212414667,0.07627251744,-0.5203300118
0.8926233777,0.4224401072,0.113341717,-0.2050219923,-0.03256315738,-0.4375094473
1.156876079,0.3947966422,-0.1293155312,-0.1364483833,-0.1010439396,-0.36247316
1.013593982,0.2702357216,-0.6632528966,-0.03944194689,-0.1247652471,-0.2958365977
0.9412401091,0.2862185959,-0.9356962113,0.02986047231,-0.1262302101,-0.2506958246
0.7226324295,0.06740786804,-0.8079881152,0.06273719668,-0.1025129035,-0.2158536762
0.5531257577,-0.06963401965,-0.595639496,0.08029808849,-0.09095128626,-0.1811769903
0.602822101,-0.07087035652,-0.4183165975,0.08777917176,-0.07927172631,-0.1392322034
0.6226061211,-0.1051177132,-0.3180886291,0.0964313224,-0.06134957075,-0.1011343077
0.5323831216,-0.1478052372,-0.3029302229,0.1090959832,-0.04236149788,-0.07890543342
0.3952656845,-0.1373542781,-0.3145306443,0.1252003014,-0.0319830738,-0.08021809161
0.196494632,-0.09587214784,-0.3039724254,0.1425377578,-0.03364861384,-0.09180523455
0.1239119186,-0.07169445931,-0.266350843,0.155502975,-0.03452923894,-0.0973123908
0.167514329,-0.07135565581,-0.2197995197,0.1624623537,-0.05606036633,-0.08966831863
0.2499129185,-0.02096164908,-0.07145020223,0.1512301862,-0.08147415519,-0.0756533742
0.2392573767,-0.02771956238,0.09351181191,0.1324029714,-0.1108205914,-0.06453254074
0.1962242906,-0.04671663339,0.1989490394,0.09754545987,-0.1450857371,-0.06959916651
0.08309183245,0.002305062072,0.3587351122,0.06280026585,-0.170992434,-0.07970026881
-0.06378448991,0.05576623782,0.4131956012,0.04029176384,-0.165989399,-0.1073007658
-0.2085702697,0.07258972765,0.3076403003,0.04245797917,-0.1316966861,-0.1275999099
-0.2060126942,0.06858889451,0.1557815133,0.06205664575,-0.07118019462,-0.1303022951
-0.1809758681,0.1452919027,0.02584755796,0.0798074156,-0.006049394608,-0.1510251611
-0.3389788569,0.2018099818,-0.01537117213,0.09518884122,0.03646973893,-0.2004499435
-0.5290770658,0.2232928418,0.01141103633,0.1198401228,0.07070494443,-0.24931629
-0.5317226119,0.2786480146,-0.01796118863,0.1431257129,0.08425582945,-0.2876552939
-0.4056082148,0.3594390227,-0.04312427146,0.1650390029,0.0752998814,-0.3263915181
-0.3651125383,0.3502465392,0.006351414853,0.1846072674,0.0803180784,-0.3438854218
-0.2697816943,0.3279300049,-0.04323416157,0.2062640935,0.104676418,-0.339409709
-0.1454682091,0.2840644866,-0.06308978564,0.2098568231,0.1378066838,-0.3305101097
-0.1238584349,0.2459663728,0.01352408296,0.1946661472,0.1527222544,-0.3268336058
-0.1212716332,0.2633571411,0.1284977851,0.1714190245,0.1376873702,-0.3304609656
-0.03620470133,0.2653351632,0.1989730048,0.1507510245,0.1137761697,-0.3260496855
0.08129033598,0.3259615544,0.123342302,0.1377151757,0.07354341447,-0.3169094324
0.04671703525,0.2781017788,0.0515875639,0.1244718209,0.02886036411,-0.31201002
0.06240297242,0.2797814756,0.03061199588,0.1169344634,-0.01943702437,-0.3000159562
0.1797878274,0.2726803383,0.02384264788,0.1088453755,-0.03237785771,-0.2641769946
0.2968926963,0.240832517,-0.06715864252,0.09806131572,-0.04938186705,-0.2340373397
0.2605167301,0.1961436266,-0.07208382396,0.07952597737,-0.08773937076,-0.2177558392
0.1560126917,0.1833890667,0.04709843578,0.05502935871,-0.1265476048,-0.2328981459
0.04002484414,0.2429297816,0.1142582473,0.04498497769,-0.1465815008,-0.2504616976
-0.1403884216,0.2437419747,0.06821779618,0.04933538288,-0.1228106767,-0.274189204
-0.2687351078,0.2709939196,0.02237199081,0.06382297724,-0.0749720484,-0.30249542
-0.347459685,0.2918046524,0.006514496461,0.08018199354,0.02355832979,-0.3007975221
-0.2240504552,0.4648408136,-0.002884615526,0.08751980215,0.1473047733,-0.2884228826
-0.1962511786,0.6211818605,0.1041091938,0.1139522567,0.2379159629,-0.3290412128
-0.8620201497,0.4279265757,0.172661921,0.1440206915,0.3283182979,-0.4233317673
-1.171796877,0.3424919796,0.2184697324,0.1879507005,0.4040492177,-0.5482234359
-1.381601365,0.6798105751,0.3237146522,0.245709613,0.4801447988,-0.672824502
-1.511235461,0.9889094767,0.2333937453,0.3313844502,0.5523149371,-0.8647970557
-2.193761505,0.814918499,0.1923129624,0.4168892503,0.7435256243,-1.115661979
-2.629946353,0.4516369025,-0.06647767451,0.4803462327,0.9274882674,-1.354122281
-2.687264277,1.003816465,0.3053969053,0.5696294904,1.044783354,-1.487609267
-2.228853569,2.139488648,0.5028296949,0.6683536768,1.210119367,-1.705019832
-2.72884921,1.495688348,0.3433487425,0.7870856524,1.482466817,-2.102396488
-4.464290024,0.1664130897,0.02937397852,0.884835422,1.964370966,-2.480228662
-4.464650966,0.1457307325,-0.7580395507,0.9891506433,2.452762604,-2.742256403
-3.410484735,1.433294581,-1.378937991,1.085471272,2.713784218,-2.83964777
-2.110299963,2.416774288,-1.730564148,1.242301106,2.696528196,-3.009738207
-1.609134402,2.275162901,-2.06582603,1.424968243,2.411101818,-3.124140263
-1.442872411,2.17297883,-2.295613276,1.58576858,2.277724028,-3.282018661
-0.6843260797,2.081010886,-2.95391761,1.761088848,2.28222847,-3.457750082
-0.228937935,2.638142518,-3.77575714,2.031610489,1.898419499,-3.542029858
-0.1717453907,3.251144068,-2.362844399,2.183450222,1.666236401,-3.68508625
0.1834896045,3.248082927,-2.417576106,2.286976337,1.479611397,-3.83636713
1.133296759,2.947743013,-2.810554264,2.461775303,1.310580611,-3.951300859
1.777550356,2.536974931,-2.613174666,2.62074399,1.65256536,-3.885359526
3.436045878,1.702177573,-3.324554757,2.885088444,2.037917852,-3.627827168
3.786660812,1.730310612,-3.022826895,3.089859962,2.560822725,-3.335593939
3.85708284,1.998491301,-1.64216398,3.188671827,3.179776192,-3.110777855
2.96411927,1.903784726,-1.056185462,3.130617142,3.559425831,-2.789797306
3.054651774,0.8779135191,1.128226616,2.857958555,3.336095333,-2.579230547
3.575840133,-0.7722239973,3.863082957,2.306005001,2.176289082,-2.707597971
1.456684079,-0.3850387799,6.79134707,1.577762723,1.380045056,-2.487173319
-0.6837000568,2.489842301,6.030241118,1.160067558,1.60687983,-2.715914249
-0.5253372948,-0.4837091436,2.683068286,1.228788376,1.799786091,-2.963981628
-0.3930038771,-1.773119241,1.401695766,1.593091249,2.353658438,-3.099300623
-0.6225771873,-0.7258211426,-1.124797226,1.87267983,2.547757626,-2.889722824
-0.09923603478,0.9099456839,-0.1218891806,1.923979521,2.3652246,-2.676497936
0.3569803775,1.706520717,1.058899397,1.771727085,1.942101479,-2.740144968
-0.7171347089,0.8181023167,2.503232528,1.444149494,1.327237248,-2.702717543
-1.199021569,0.2186610903,3.977881887,1.054546475,1.333505511,-2.632881403
-0.7028986783,-0.6401289184,3.211620452,0.843673408,1.303915501,-2.621032715
-0.8597972129,-1.4195684,2.773569226,0.7443076968,1.241267204,-2.567214012
-0.6984294239,-1.071979682,2.206833168,0.6622993946,1.337088466,-2.519953728
-0.1106499937,-1.380842217,1.010533718,0.5896641016,0.9136080146,-2.19887352
0.6983569432,-0.7849648209,2.135887116,0.2909770608,0.6260254979,-1.868443727
0.9690244804,-0.9374971232,2.875717933,-0.1391931325,0.6575585604,-1.70050168
0.9070961397,-3.054809011,3.46595031,-0.4043568969,0.4590819776,-1.633542657
-0.1788204436,-3.431005545,3.77123411,-0.444488883,0.05053389817,-1.561628699
-0.918678441,-2.633691969,3.324462987,-0.4961467385,0.1117077768,-1.706927538
-2.025769914,-2.647423557,1.226780514,-0.5693083405,0.4103199244,-2.014620066
-3.230751853,-2.310335044,0.04344517397,-0.6051262617,0.7954673171,-2.170144558
-2.25514741,-2.056641146,-1.080226847,-0.6848757267,1.201876044,-2.253232479
-0.7976192814,-2.200922191,-1.545771352,-0.9311427474,1.611832142,-2.468667269
-0.8939771304,-2.278767939,-0.7303542559,-1.280332685,2.15710187,-2.77783823
-0.8461556411,-1.801594371,-1.170370644,-1.606505632,2.435642958,-3.06946516
0.169351189,-1.14868722,-1.574360026,-1.842799425,2.454169035,-3.451992512
0.06944470763,-2.085213452,-1.102351878,-2.122282028,2.420042515,-3.652730465
1.088465099,-1.459423441,-0.1644999496,-2.421180487,2.218319654,-3.64613533
2.530949972,0.01108954929,1.452251649,-2.568516493,1.972534418,-3.561245203
2.722022579,0.6272229673,2.182373265,-2.517700672,1.548442483,-3.496177197
1.852844958,0.6638549541,2.630914321,-2.299250364,1.073967576,-3.466524363
1.024146064,0.5660808086,3.196096719,-2.126199245,0.8726018071,-3.404774904
0.3013964375,0.4323737644,2.198050435,-1.950873494,1.207183003,-3.256064415
-0.3849059108,0.1216173779,0.6915086847,-1.524071097,0.734167695,-2.97201395
-0.4031272117,-0.3698790221,2.212927248,-1.259970546,0.460500747,-2.804722786
-0.5968734217,-1.471570098,1.641470007,-1.315986872,0.4196074009,-3.007855415
-1.886656043,-3.35257206,0.8175432946,-1.446571946,0.5958349109,-3.653805494
-3.96021822,-5.121878904,0.01238835693,-1.379542232,0.9546488523,-4.580407143
-5.574923116,-4.785872341,-1.811798224,-0.6474549174,0.1196538508,-4.084040165
2.752928589,0.9165595491,-2.034370569,0.1988333911,-0.4067297578,-2.642709255
7.827803165,4.459164936,-2.895856466,0.04753494263,-0.4101942778,-2.164029598
-0.3181125945,0.8934171585,-0.3830069453,-0.2820322514,-0.6483129859,-1.900763035
-1.742613482,-0.08467325642,5.803198203,-0.3327337801,-0.4222867787,-1.730190992
0.910188845,-0.9220300895,3.0579023,-0.05308812112,-0.1798857749,-1.747788668
1.056034071,-1.518013869,-1.316887047,-0.1258352995,-0.280528754,-1.566621542
3.177842685,1.186372515,1.947676621,-0.1758938283,-0.3861298263,-1.590664506
2.554735629,0.7993862911,0.823977127,-0.01861978136,-0.2393827438,-1.542481542
1.949833799,0.7819225306,-1.106190725,0.3045803905,0.03407283127,-1.218227625
3.236177677,3.036719227,-2.793618327,0.5233002305,0.0214859359,-1.026639104
3.023018911,2.392785948,-0.6949165935,0.6245800853,-0.1066459492,-0.9045907855
1.901197778,1.687031296,0.3703976391,0.6352202296,-0.225887388,-0.7664864659
1.60968999,1.869574559,1.083023931,0.6386548281,-0.3984066844,-0.6656697392
1.14878805,1.610924792,1.191930296,0.6353205442,-0.5280957222,-0.5416990519
1.210809037,1.535169002,1.047217289,0.6267140508,-0.6614650488,-0.3866598308
1.359102825,1.572827409,0.8297941427,0.5785236359,-0.8252316713,-0.2442246675
1.334647599,1.502820391,0.9973562564,0.4826458693,-1.016938686,-0.1285144389
1.137726266,1.206428046,1.522314781,0.3371174037,-1.204734921,-0.01477615535
1.422058463,0.7948305275,2.037006179,0.1944180727,-1.460556507,0.06992512196
1.590152638,0.6902782661,2.459968264,0.05713077635,-1.683592081,0.07871328294
1.170342295,0.4262976594,2.470028762,-0.05878908932,-1.777105927,0.01563686132
0.6364087288,0.2115694515,1.755780422,-0.206302911,-1.634681106,-0.1084829569
0.2036164467,-0.02177987013,0.4962450558,-0.2454896718,-1.680444837,-0.1164264753
0.1970873372,0.1338251176,0.527449903,-0.1717909575,-1.636843801,-0.03338697553
0.5989949439,0.2984562924,-0.1817130963,-0.08504594117,-1.611735225,0.04920084402
0.4997612472,0.04228489802,-0.6305465588,-0.1038878039,-1.608160496,0.1229469702
0.7197942835,-0.4208668665,-0.3398004024,-0.2783175111,-1.596068859,0.1423585415
1.14427028,-0.8598732008,-0.01351297705,-0.5132056475,-1.540286541,0.03081763536
1.213489655,-1.335294664,0.1810717297,-0.6748988032,-1.555472255,-0.1359596848
1.193576455,-1.576193086,0.8420762628,-0.7136057615,-1.70433259,-0.2064722031
0.9923866513,-0.7708288897,1.62136786,-0.1727086157,-0.8798552752,-0.06536587328
0.9884688933,1.006899161,-4.025107749,0.56724751,0.0390175879,0.04926190525
1.166687572,1.120192947,-8.03090757,0.7168793082,0.2432706207,0.1192878038
1.294607557,-0.7337263627,-1.738403171,0.4695577025,0.198988378,-0.1194475442
-0.3477192127,-2.327573764,1.256426295,0.06423155218,0.2338529825,-0.5757491589
-0.7495879487,-3.011440409,0.8946892242,-0.6440406442,-0.2641171217,-1.297061801
-1.65537096,-4.663953934,5.061744461,-1.108591914,-0.5458793044,-1.951998234
-1.425862532,-6.056117317,5.975823299,-0.5032522082,0.7495567799,-2.267316818
-0.9793532744,-4.654482341,-6.694854781,0.1430273801,0.9202339053,-2.491271019
-0.7942518508,-3.89130835,-5.143274158,0.5372241735,0.4745906591,-2.646070242
0.1237419689,-3.265710938,-0.320818054,0.7213334441,0.3985608816,-2.655611753
1.048369674,-2.618099847,0.2528643156,0.7520931959,0.223699823,-2.576730967
0.8758734646,-2.244786759,1.469905525,0.6352393627,0.002793800551,-2.442623377
0.4578564346,-1.893376291,2.306144022,0.3876132965,-0.05238396674,-2.203759193
0.6206621475,-1.796239859,2.378805646,0.1304868013,-0.3909069002,-2.034640312
0.2781143461,-1.872960695,2.546983699,-0.07426527143,-0.6045523286,-1.946160913
-0.09579436989,-1.523271059,1.478031403,-0.2357410491,-0.5330697894,-1.870276928
-0.1324808634,-0.9852473009,0.3201312408,-0.3810005188,-0.4361786544,-1.785224795
0.1032256889,-0.7780623481,0.3872027896,-0.4691681266,-0.3356761336,-1.717477679
0.4462651463,-0.826594616,0.6311335649,-0.471052289,-0.2786772847,-1.67628026
0.9082336193,-0.9070312578,0.9397687214,-0.3892407417,-0.2741037607,-1.663649201
1.308099783,-1.05906657,1.376180801,-0.2100757658,-0.3078806102,-1.66387558
1.787548457,-1.190932371,1.586535616,-0.01109981537,-0.3471060097,-1.691484809
2.202729386,-1.354607268,1.794094079,0.1440700591,-0.4625324607,-1.791338444
2.325706947,-1.643550466,1.940624364,0.1866815686,-0.4468938708,-1.954983473
2.247019487,-1.903450526,1.70854404,0.1176497638,-0.2808425725,-2.161258936
2.006466079,-1.984087658,1.273585227,0.04454466701,-0.02913257666,-2.326259375
1.766665097,-1.666347989,0.9095328654,0.09579453617,0.1452362984,-2.390155792
1.778607902,-0.9331365899,1.059772234,0.2007698268,0.1986526847,-2.344495773
1.983678347,-0.2545844174,1.527717517,0.2248235047,0.1019703373,-2.209280491
2.223207234,0.1448866098,2.507646253,0.08325652033,-0.1258196831,-2.030102968
2.591436005,0.190486916,3.099589525,-0.173277542,-0.2744485736,-1.762478113
3.072898502,0.3927040173,2.523937463,-0.3563036025,-0.2437952161,-1.386067271
3.522045414,1.092048218,1.260358374,-0.383363992,-0.05376455933,-0.9424740672
4.096836768,1.827203737,-0.08795169357,-0.369253248,0.1701079458,-0.4636901915
4.734976266,2.301742572,-1.024428826,-0.5204696655,0.4866411686,-0.05028903857
4.913413848,2.105968071,-1.504826178,-0.6667907834,0.9790585637,0.1845145822
4.238245473,1.936155694,-2.46797446,-0.4059291184,1.331939101,0.2155510634
3.673584468,3.167184513,-3.410045759,-0.5866923332,1.226824164,0.2517762482
3.641667527,1.518774332,-1.389969673,-1.518406749,0.1276121736,0.09640636295
3.26732305,-2.543964936,3.359302245,-1.690499544,-0.5663625002,-0.307931602
2.22050762,-4.94667665,2.592147075,-1.011495948,0.6522403359,-0.5281829834
2.651560218,0.08553601073,-3.242175749,-0.6622338295,1.953727603,-0.9197137952
3.216125362,7.167804886,-0.8105635187,-0.856228888,2.815912485,-1.702868223
1.867387571,11.4215928,3.791182089,-1.42742455,3.162845135,-2.975846052
-1.70634653,13.80790926,6.140162213,-2.054585934,2.921858788,-4.227907658
-4.473256298,13.23616852,6.604248043,-2.694198132,2.046064615,-4.057997227
-1.562474942,13.35202076,6.680556207,-3.417285919,1.086953998,-2.658136129
2.040623492,12.92415074,5.720010216,-3.962035418,0.3318464756,-1.441715717
-0.2030497527,8.047121039,3.193000507,-3.957531929,-0.0883891508,-0.8289708495
-3.534617019,2.74794554,-0.06711832877,-3.432044744,0.0493930839,-0.6154472232
-5.675283186,-0.2644464707,-3.28156551,-2.636805773,0.2464238554,-0.6320642829
-6.876057152,-1.487223594,-4.183229103,-1.753454089,-0.1793664396,-0.2760488987
-6.327893108,-0.6276438231,-2.447739189,-1.082454443,-0.9696671963,0.8247764707
-4.455915579,1.443989432,-0.1209784955,-0.9677461386,-1.169917107,1.090921879
-4.494351985,-0.8875479742,-0.2724677915,-1.218852162,-0.8053737283,0.7734613419
-3.297011793,-2.664337282,-1.806260317,-1.55072391,-0.1732725799,0.4000501633
-0.9768111887,-2.377740939,-3.359048563,-1.702032804,0.282002002,0.1375423819
0.7230857262,-1.582544501,-4.112133706,-1.645171642,0.472569108,0.1284085214
1.871197484,-0.06282324366,-3.86059757,-1.59252584,0.3738939464,0.2673171461
2.610153272,1.536121773,-1.941953713,-1.622104406,0.1817223877,0.3631722629
2.215021443,2.232894661,-0.08844503004,-1.626539707,0.112518549,0.4031481743
1.431823486,2.331995087,0.2889300469,-1.546225548,0.1152050346,0.4588260949
0.6932166577,2.112663769,0.02016001384,-1.404781103,0.1705956012,0.5541470051
0.2887926842,1.428100374,-0.3049056146,-1.248087525,0.2294410169,0.6022005081
-0.3702592535,0.5332961448,-0.3053869684,-1.096576571,0.3395470083,0.6487547159
-0.9793114811,0.08509411218,-0.4995594411,-0.9757508636,0.4148130417,0.6940754056
-1.457777135,-0.1115899049,-0.794789611,-0.9010593295,0.3785818219,0.7008270621
-1.978819363,-0.554034397,-0.8063771729,-0.8724079132,0.2902484536,0.6667039394
-2.310173424,-1.0669582,-1.111610997,-0.8947595358,0.2632234693,0.6039167047
-2.466828213,-1.428451671,-1.755463027,-0.9717154503,0.3587690592,0.5279183984
-2.49076643,-1.808525924,-2.468131989,-1.071584344,0.5067017674,0.4909803271
-2.13056709,-1.909231447,-3.003620675,-1.147286415,0.6358544827,0.4546399713
-1.762441049,-1.98903739,-3.113357938,-1.180933237,0.7427361608,0.4094674289
-1.419953892,-1.997008515,-2.926772706,-1.207540274,0.8900614381,0.3737165332
-0.8612921277,-1.838403761,-2.798337757,-1.216198802,0.9679163098,0.3185845912
-0.3959706179,-1.725767562,-2.417655893,-1.214221478,0.994160533,0.2712579072
0.2472331779,-1.403562145,-1.907242319,-1.201694489,1.010485411,0.2360988408
0.7176414894,-1.112308916,-1.60223792,-1.201034665,1.083218932,0.2158346027
1.011886302,-1.029545877,-1.562099679,-1.202324986,1.123779655,0.189653337
1.11614601,-0.8857359563,-1.377060215,-1.224345088,1.123304367,0.1447251439
0.9977861722,-1.039872625,-1.055947854,-1.224295259,1.128662348,0.1216366068
0.991459015,-1.130893789,-0.9187330938,-1.185400367,1.170016527,0.07341982424
0.7864715722,-1.349300393,-0.8675482655,-1.100392103,1.218368411,0.05004126579
0.8984586598,-1.60719905,-0.8152370635,-0.974907279,1.193240762,-0.02951106988
0.6038175418,-2.05095404,-0.7298717331,-0.816760242,1.182869554,-0.06852611154
0.6256950271,-2.292017297,-0.9266767463,-0.6482217908,1.190988541,-0.06704283506
0.8599947813,-2.404568156,-1.208300562,-0.4691148996,1.198867321,-0.05498830229
0.9392197092,-2.612880651,-1.363900873,-0.2938992679,1.184868693,-0.03062748164
1.09667617,-2.618344178,-1.357794373,-0.1045146734,1.144758105,0.02134650387
1.256079673,-2.573981889,-1.30541712,0.08277092129,1.116471529,0.07689965516
1.316226099,-2.624740601,-1.195916881,0.2528044283,1.132845998,0.1517922729
1.402982591,-2.759336118,-1.117032145,0.4215078354,1.087403893,0.2070620358
1.327290806,-2.662632817,-0.7111179328,0.546572268,0.9955943227,0.2301993221
1.168595159,-2.409573417,-0.08651537715,0.598051548,0.9452311397,0.2541159093
1.41790865,-2.063333629,0.4683811896,0.6044274569,0.9099961519,0.2860719562
1.594038832,-1.387323542,1.234860652,0.5259138346,0.9313274622,0.2949189246
1.740696251,-0.9664122521,2.103331877,0.3815454841,0.9802396297,0.3099617958
1.96379715,-0.3465367249,3.271962108,0.1903385967,0.9559206367,0.3561269641
2.295221646,0.5212871426,4.586247886,0.001991586527,0.7386689782,0.3305731416
1.662099684,1.140274781,6.063232702,-0.1970204562,0.5350543261,0.3687781692
1.589806016,2.055055045,6.809034703,-0.4073361456,0.4648949206,0.4265551865
1.399712484,2.521825585,6.547627746,-0.5704931021,0.5807414055,0.4777828753
1.113411616,2.481618662,5.302932221,-0.6910355091,0.8569597006,0.5027159452
0.9640279873,2.043098066,3.806531341,-0.8264497519,1.179615498,0.4446190894
0.5573036279,0.9558376665,3.000750965,-0.9006220102,1.360327125,0.3212340474
-0.2465542557,0.333386736,2.558071495,-0.8329421878,1.352140903,0.1131061614
-1.974298086,0.5822077675,1.839207186,-0.5929911137,1.243278027,-0.080279544
-4.06462289,2.211136419,0.697830289,-0.1433888376,0.8870899677,-0.3923926055
-7.105953118,4.49638729,-0.3365001918,0.1855387241,0.3339820802,-0.5744172931
-8.949082738,7.365700033,0.1981517516,0.1067451462,-0.2850200832,-0.4931893945
-9.06647753,10.16508584,1.512533684,-0.3952220976,-0.6777369976,-0.2257267982
-7.706929299,11.11497366,2.999888795,-1.070146918,-0.9307448864,0.111348711
-3.488900685,8.742546605,5.163569343,-1.480220437,-1.474583626,0.375813663
1.134256836,4.108682104,6.286490838,-1.086885452,-1.599407434,0.5637465119
3.05768632,-0.5664204158,-1.214673019,0.1099851429,-1.195404887,0.5515950322
2.37449129,-6.060809274,-10.72461942,1.339402437,-0.5860688686,0.4313494861
1.32416186,-10.67857429,-13.46291859,2.023347616,-0.3447241485,0.3557223678
0.6363362481,-11.57971532,-10.66522732,2.214844704,-0.5082057118,0.3109541535
0.3290443228,-11.0869961,-6.743976247,2.033036709,-1.057370782,0.1621939689
-0.4867468674,-10.37754902,-2.83097366,1.566778183,-1.778850317,-0.06125329807
-0.8369687105,-8.541254217,1.822586014,1.455987692,-2.260154247,-0.2707010508
-0.8741159534,-4.23272291,0.9101569886,1.87516582,-2.289969683,-0.4548749328
-1.163375963,0.508213726,-4.582898576,2.53846693,-1.946619272,-0.6989712119
-1.608118795,3.635239832,-7.958087833,2.929857492,-1.715201259,-0.8945960999
-1.056754202,5.46702622,-6.407932275,2.821307898,-1.771554232,-0.8758980632
0.723005939,6.900705855,-2.365307574,2.284683466,-1.768283725,-0.6626087427
2.140892085,7.29889035,-0.1503761472,1.563591242,-1.371514559,-0.4567793906
2.034211579,6.162675658,-0.328874227,0.9147557616,-0.5642587543,-0.3527568877
1.238183951,3.920853009,-1.982184893,0.5458224416,0.0980598107,-0.266028136
0.7848588763,1.540823667,-2.369651741,0.4869399071,0.3701788485,-0.200981915
0.4400561356,-0.3504641275,-1.762692394,0.6072646976,0.5076554418,-0.1922225058
-0.01152004966,-1.76040516,-2.156874083,0.8318615556,0.5424100757,-0.1978880763
-0.3127452222,-2.306718022,-2.491500005,1.116618156,0.4094709456,-0.2521718144
-0.6983575277,-2.591529236,-2.06473239,1.422955275,0.1414235234,-0.3289266229
-0.8952139788,-2.524236738,-1.443641642,1.670418382,-0.1670237929,-0.3619660735
-0.5712371684,-1.891600513,-1.102167534,1.791906595,-0.545788765,-0.4041003883
-0.4335138744,-0.9748410577,-0.7375473823,1.713641167,-0.8550750017,-0.4446267784
-0.2885132827,0.07003215213,-0.2657037773,1.484353065,-0.7561635971,-0.4374781549
0.5434627341,1.083975386,-1.104408591,1.261468053,-0.3313028812,-0.403585434
1.198235679,1.929434862,-2.445966919,1.031389356,0.3117618263,-0.3556477726
1.83085846,2.233847432,-3.212228354,0.8588854671,0.885024786,-0.3451474607
2.554984051,1.724413224,-2.75009132,0.8155705929,1.112129092,-0.3458707035
3.048523939,0.888224266,-1.44315415,0.8882376552,0.9635809064,-0.3077374399
3.15362945,0.1258650985,-0.03682606636,1.032164931,0.7051802278,-0.2231507599
2.890105647,-0.3546604101,0.4840086746,1.142447472,0.4300280213,-0.2178198993
1.97518539,-0.8663894508,0.5730015478,1.169238925,0.2357809097,-0.2451074868
1.058224859,-1.223038989,0.4843535425,1.123800635,0.1949418783,-0.2484747916
0.5751245313,-1.375007081,-0.03520399985,1.065249085,0.2415549159,-0.2724695206
-0.0354363473,-1.512097338,-0.5796025169,1.018212557,0.2755104899,-0.3270121217
-0.5213321508,-1.539593248,-0.6861586289,0.9766859412,0.2627871931,-0.4366115034
-0.9897387671,-1.587133582,-0.4211409707,0.9492982626,0.2500639558,-0.518535614
-1.049589425,-1.332961253,-0.2593933521,0.9377194047,0.2784266472,-0.5664337277
-0.8579112531,-0.9272381795,-0.2258324432,0.942917347,0.2977127135,-0.5985471606
-0.5602095785,-0.7823352031,-0.06428162577,0.973179698,0.3348668814,-0.619566381
-0.2040358412,-0.6819581816,-0.01663008615,1.033565044,0.3395569623,-0.6038710475
0.1702414158,-0.4576531671,-0.01908281307,1.089379072,0.3288479745,-0.5683712959
0.4192746289,-0.4885504097,0.007566635862,1.153195381,0.3019186258,-0.5625560284
0.3576934942,-0.8848398843,0.2016951233,1.212895989,0.2667222023,-0.6266943812
0.02169336089,-1.460777485,0.5963567044,1.280313849,0.2423529476,-0.7205830812
-0.2964809006,-1.726190755,1.101023113,1.371200919,0.267789036,-0.8063465357
-0.3551046468,-1.642557948,1.539740109,1.473954439,0.3002569675,-0.8796084523
-0.2906967643,-1.226657764,1.888105365,1.530181885,0.2685250044,-0.9053529501
0.1673866109,-0.4916267484,2.32693152,1.462249994,0.1895018369,-0.8901825547
0.8523699855,0.2524889064,2.706440102,1.290271044,0.1154006794,-0.8159846067
1.848726417,0.9663537999,2.606912098,1.071367741,0.07077675313,-0.7040314674
2.770792455,1.526175548,2.164388111,0.8889291286,0.08394783735,-0.5924971104
3.325578255,1.79495508,1.642059497,0.742841959,0.1317574233,-0.4873184562
3.511202825,1.956582981,1.565063351,0.597196877,0.1251791418,-0.3634883165
3.450237485,2.20381119,2.244988712,0.4536527395,0.01093725953,-0.2373602241
3.086049368,2.368048982,3.100997054,0.337280035,-0.177791208,-0.1475450546
2.55071178,2.513234282,3.573658112,0.2931213677,-0.3846671581,-0.05832435563
2.235141564,2.764897259,3.38578021,0.3450461328,-0.5797542334,0.04911408946
2.175107951,2.945619737,2.87669993,0.4337885082,-0.7334277034,0.1348495036
2.060518572,3.14251652,2.315510401,0.4750837386,-0.8751472831,0.1772094965
1.754172987,3.392630514,2.214875897,0.4245811403,-0.9907588363,0.1881865263
1.210923311,3.82325422,2.405174013,0.2888633609,-0.9927315116,0.1651717573
0.7257575758,4.242755643,2.291111288,0.1123724729,-0.8919450045,0.1359856427
0.7078013556,4.497697788,2.00295544,-0.1112760901,-0.811104238,0.1461371779
1.082572534,4.770920855,2.04143627,-0.3875276446,-0.7820845842,0.227975592
1.68721922,5.222151296,1.807106997,-0.6287424564,-0.7394720316,0.4459085763
2.760717928,6.209101309,1.025135075,-0.7843639851,-0.6422626376,0.7749250531
3.722650989,7.377302208,0.2051645529,-0.9022093415,-0.5349493623,1.130262852
3.874740077,7.945985308,0.2022141787,-1.003162622,-0.58571136,1.409307241
2.950089284,6.912378757,1.166650893,-1.099074125,-0.8408392668,1.487745285
0.4916048288,3.759920689,2.829448934,-1.342051268,-0.9323601127,1.42211318
-2.193601931,0.7670002713,4.105625055,-1.752879024,-0.7806308866,1.229471922
-4.111183858,-1.136856497,4.485173238,-2.214179277,-0.6125779748,0.9491531253
-5.087965528,-2.35466986,4.437495541,-2.565901995,-0.6712060571,0.6849930882
-4.926556238,-2.348174068,4.193225597,-2.711201668,-0.9619446397,0.5020038486
-4.227852673,-1.34042209,3.412730468,-2.669243574,-1.307713628,0.3925200403
-3.831418237,0.06328443143,1.9726246,-2.494570732,-1.540797472,0.3872930408
-3.671944007,1.637048829,0.08287234448,-2.261152029,-1.698798537,0.4780161381
-3.576868891,2.895982723,-1.433974819,-2.059141159,-1.899091721,0.6151689291
-3.763983116,3.812610661,-1.752645632,-1.937336206,-2.054839373,0.7169246674
-4.25960098,4.078666905,-1.862635116,-1.891962886,-2.099699497,0.7297600508
-4.565501158,3.348675053,-2.171235785,-1.909926891,-1.992577434,0.7059015036
-4.136539833,2.416025369,-2.735776379,-1.936162949,-1.770318985,0.7079438567
-3.162684571,1.623862015,-3.293157748,-1.963126421,-1.423258305,0.7369544506
-1.912514414,0.9031675681,-3.411254551,-1.983873248,-1.080533981,0.7685334682
-0.9574351649,0.815886175,-3.096649672,-1.993285418,-0.7111759782,0.6336817741
-1.71283823,0.176786892,-3.162269268,-1.978001595,-0.3066622913,0.4629742801
-1.850211395,-0.1583276907,-3.776579855,-1.990069866,0.08817278594,0.332195729
-1.40007781,0.08804711677,-3.761278825,-1.938095689,0.4709540009,0.4205026627
0.3403121513,1.236750703,-3.953081792,-1.926511407,0.6198369265,0.6907291412
2.613544376,2.78317409,-2.642213129,-1.951655388,0.5029987693,0.8090664744
2.350435876,2.831462028,-0.7741583264,-1.935701013,0.3290648758,0.8174046874
1.424085001,2.252218955,-0.6593959289,-1.800009251,0.2060913146,0.8569923043
1.101134318,1.883727588,-1.800820464,-1.578005433,0.2125695944,0.9605565071
1.020685694,1.561702204,-3.10834917,-1.357340693,0.2958570421,1.075363755
0.7805126638,0.9795411982,-3.756001762,-1.166392565,0.4057544768,1.206997275
0.3884858151,0.06478489912,-3.710871996,-1.033276916,0.581903398,1.278351068
-0.4516919206,-1.245600365,-3.80680782,-0.965284884,0.8201900125,1.263363004
-1.604427539,-2.524002345,-3.951884692,-0.986553371,1.182298779,1.173658729
-2.531191087,-3.522646303,-4.372779615,-1.14381516,1.487712026,1.066039562
-2.964820697,-4.253104019,-3.710152449,-1.3470788,1.684135318,1.000088215
-2.668993876,-4.429640736,-3.29267201,-1.50217247,1.751076102,0.9534963965
-2.018772164,-4.618392791,-3.254931186,-1.572998524,1.732967138,0.8562060595
-1.802195991,-4.935664258,-3.437434409,-1.53313458,1.66353929,0.6939736605
-2.061706612,-5.158684493,-3.870256794,-1.352898717,1.56504631,0.5009277463
-2.399919161,-5.299789831,-4.510745194,-1.05189395,1.457769632,0.2997517884
-2.578912915,-5.257789011,-4.973508543,-0.7230181694,1.31365025,0.1050771102
-2.401960311,-5.250086181,-4.779726677,-0.428812921,1.202312112,-0.05311609805
-1.828263475,-5.157733476,-4.287414577,-0.203079924,1.150825381,-0.1499816477
-1.239087037,-4.699866959,-3.700423375,-0.008375027217,1.072459817,-0.1670995206
-0.7202130934,-3.912186303,-2.914622249,0.2076627314,0.9245185852,-0.1703666896
-0.3661830901,-3.081151659,-2.224993387,0.4367490113,0.8159972429,-0.1641338617
-0.06650105539,-2.504052028,-1.904827659,0.6335813999,0.7605438232,-0.1640907079
0.3137222505,-2.103943872,-1.511763576,0.7613913417,0.6592120528,-0.1997231394
0.3545525658,-2.021459065,-0.645774523,0.7998707891,0.5632050633,-0.2891704738
0.1114478661,-2.223022671,0.2650099498,0.7793269157,0.5504257083,-0.3796825707
0.1679310931,-2.265785708,0.558147093,0.7598807812,0.515404284,-0.4484275281
0.3469935288,-2.223994147,0.8305714107,0.7525856495,0.4549176097,-0.4847099781
0.6232102245,-2.109475202,1.275541914,0.7426861525,0.4107530713,-0.5021126866
0.9064388449,-1.798435323,1.854331105,0.7450463772,0.3915301263,-0.5063095093
1.12562637,-1.082032435,2.604628079,0.7511132956,0.4252891541,-0.465059787
1.39228058,0.1746831977,3.375275183,0.6842290163,0.47902897,-0.3661641777
1.764630376,1.677614648,4.326971219,0.502599299,0.5376954675,-0.2413516641
1.991601395,3.150639621,5.448839406,0.1934511214,0.6348900795,-0.1357277185
1.652688589,4.433387521,6.267133811,-0.1934489161,0.7943023443,-0.04123370722
0.803762022,5.427139031,6.451420703,-0.6086238623,1.003548145,0.05240704119
0.3772828686,6.073859895,6.194774677,-0.9736868143,1.181416631,0.2028860301
0.697305096,6.017115679,5.531514182,-1.24181664,1.186305523,0.4112398624
1.550107336,5.100227044,4.90705425,-1.414670944,1.074969411,0.6052146554
2.045242677,3.383263551,4.113712792,-1.456012368,0.9986181259,0.7208172679
1.77176885,1.534355347,3.039901949,-1.328623295,1.020758867,0.7300541997
0.7519903337,-0.0009095160604,1.512320333,-1.037607312,1.13033092,0.591340363
-0.5875543893,-1.231228725,-0.3761728615,-0.6735123992,1.187640786,0.3114325404
-1.935605659,-1.806166209,-1.001861167,-0.3447810411,1.070996046,-0.04580520466
-3.182570883,-1.364423728,-0.1997308374,-0.1433302164,0.8566073179,-0.3414613605
-4.061828291,0.6516214955,1.065083931,-0.1297128946,0.6737694144,-0.4104032815
-4.747246842,4.220607524,1.967864838,-0.4281858802,0.5090103149,-0.331023246
-5.904561897,7.883640203,3.43386678,-1.06200707,0.2073021084,-0.1602893025
-6.926900035,10.82119529,6.270825067,-1.455872059,0.1299932003,0.09463939071
-6.197498549,11.3237602,4.55640892,-0.9290148616,0.5173658133,0.2884017527
-2.484339319,5.583544813,-5.084190101,0.3257930875,0.7152975798,0.4801237583
2.187229473,-2.393773206,-11.90498772,1.509863615,0.5114096403,0.5673473477
3.518410857,-7.053662374,-11.63012215,2.172095776,0.06860268116,0.4914661646
2.131537397,-8.971730039,-8.044896348,2.394077778,-0.5012711883,0.3965887129
0.9222872791,-9.256180018,-4.623601465,2.304922581,-1.196199417,0.1986883879
-0.7843386518,-9.162248519,-1.566659826,2.120265484,-1.840242743,-0.09096805751
-2.347936753,-8.351056639,-0.04137041353,2.145985365,-2.209651947,-0.3597254753
-2.891471383,-6.22330636,-2.196108069,2.450807095,-2.245936394,-0.6202294827
-3.338680021,-3.548289862,-6.258113469,2.826708078,-2.045654297,-0.8565890193
-3.256552941,-1.025817796,-8.663058642,3.07010603,-1.707180619,-0.9944856167
-2.245770217,1.336294197,-8.358060965,3.070396662,-1.419730783,-0.9836391211
-0.5860796405,3.599499825,-6.139298289,2.740086555,-1.353777528,-0.8108111024
1.397123344,5.405749621,-2.414769963,2.200158596,-1.219566703,-0.554890871
3.052014119,6.157963242,0.07866480978,1.668754935,-0.7285638452,-0.3342461586
3.667898239,5.877080016,-0.04568506185,1.317971826,-0.1980906725,-0.2152854204
3.377605671,4.238566375,-0.7230594228,1.127319336,0.02910106443,-0.1925111413
2.331540037,2.023966664,-0.6376397319,1.037164927,0.08163404465,-0.1508571804
1.596642,0.5325111319,-0.7148084579,1.006770253,0.1524901241,-0.09457238764
1.382702897,-0.607827362,-1.392813956,1.060177565,0.103489019,-0.01975114271
1.175596854,-1.211178455,-1.177307823,1.176096201,-0.05875540897,0.016720891
0.8724041811,-1.666501718,-0.6956055986,1.311961412,-0.2220684439,0.03799635172
0.7601014517,-1.814995413,-0.4196621669,1.420757174,-0.3679233789,0.007831200957
0.3482841531,-1.838890667,-0.1844481473,1.475058198,-0.4886679053,-0.0696388185
-0.156553959,-1.735295268,-0.073698931,1.418715,-0.5196502805,-0.1556670964
-0.4108484536,-1.124556403,-0.06735917006,1.243709922,-0.4695669115,-0.226627022
-0.3470858832,-0.2283388,0.08895718082,1.012444735,-0.3184273541,-0.2673077583
0.1060953992,0.583703559,-0.1341454721,0.8227302432,-0.1189152896,-0.2593289316
0.9378007823,1.088566806,-0.6142027422,0.7566081882,0.05886136368,-0.2197767645
1.75831374,1.157895193,-1.089742864,0.7960631847,0.1975971311,-0.163384065
2.466154551,0.9335346493,-1.36156074,0.8948309422,0.2546628118,-0.1007729694
2.921960921,0.6049947689,-1.153416002,0.9930397868,0.2003386021,-0.06511005014
2.933374004,0.1932259856,-0.456169066,1.039154291,0.1046296433,-0.06837747991
2.547644794,-0.2459019293,0.2052969471,1.03248167,0.06600634754,-0.07589105517
2.150988824,-0.5423188247,0.4236071051,0.9514952302,0.1618332863,-0.09635081142
1.661754231,-0.6669821462,0.2802852238,0.8831100464,0.2592807412,-0.1465298384
1.205675182,-0.9476087674,0.0290074833,0.870726943,0.2243580371,-0.2172869295
0.8190455158,-0.9982967521,0.1637695895,0.8833404779,0.1672092676,-0.2985719144
0.6347419646,-0.8798843077,0.1962695911,0.8929482102,0.1473824382,-0.3634835482
0.646281888,-0.7372954534,0.3632504708,0.8602440357,0.1750864983,-0.3848801851
0.9021917088,-0.3698533031,0.6531272239,0.8214578032,0.2381066084,-0.3753385246
1.25546651,-0.2349877365,0.7820803515,0.7912879586,0.3237919509,-0.3665482402
1.488923968,-0.1257318275,0.7223235097,0.8317602277,0.2826581001,-0.3461684585
1.512857509,-0.07882394587,0.8954857814,0.9236552715,0.1952084154,-0.3167186975
1.401893627,0.02618891875,0.9289935718,1.037632346,0.1170986965,-0.3207293451
1.128266363,-0.1486860021,0.9024180649,1.143705249,0.06152011827,-0.3494326174
0.8830471556,-0.3750789288,0.9824456875,1.225165844,0.03503045812,-0.3989879191
0.7455544554,-0.5976105038,1.128910506,1.280198216,0.02238177322,-0.4764931202
0.6208697989,-0.8581266494,1.163416441,1.316239357,0.03007338382,-0.5781198144
0.5064221664,-0.9458020102,1.058149894,1.36180532,0.08084362,-0.6748349071
0.5388277677,-0.9503133502,0.6649345661,1.394752979,0.1504410803,-0.7896824479
0.487998621,-0.9398790499,0.5104233649,1.376100898,0.1868675202,-0.8582415581
0.694706604,-0.7075760224,0.8930363425,1.324036002,0.1702874899,-0.8760510087
1.034839892,-0.2838233714,1.414857446,1.222345829,0.1391095966,-0.8667773604
1.364606099,0.06576806494,1.988289786,1.065444231,0.07235732675,-0.8260397911
1.870458064,0.353293798,2.651315888,0.8565099835,0.0005529089831,-0.7627716064
2.350520924,0.894231982,3.141339878,0.6034332514,-0.01157792285,-0.6286751032
2.953010724,1.893625882,3.359562357,0.3871558011,0.02868987061,-0.4211491346
3.64444459,2.988710106,3.190148624,0.3292510211,-0.004073270131,-0.2263484448
3.813306242,3.641455053,2.770147727,0.3971941173,-0.1801859736,-0.07785750926
3.374527287,3.985124698,2.510858785,0.532877624,-0.4157842696,0.0417512767
2.897063212,4.099000668,2.29875625,0.6313083768,-0.6339114904,0.1294622123
2.287344337,4.033669825,2.348347379,0.5833138227,-0.8202189803,0.1361559927
1.385847332,3.960295962,2.984114887,0.375181675,-0.9000986218,0.06388527155
0.3532575576,4.183360036,3.418490347,0.1380845457,-0.7983442545,-0.005124751478
-0.1086214105,4.873186467,2.686048764,-0.03732136264,-0.6146500707,0.003544370411
0.2964960982,5.76415857,1.589022465,-0.2196954489,-0.5310657024,0.1118051261
1.249579205,6.639908555,1.101389024,-0.4743549228,-0.5507983565,0.3332357705
2.411805706,7.358902628,0.8817233597,-0.738089323,-0.519695878,0.6700851321
3.625470133,8.113316974,0.2843558708,-0.9571002126,-0.4123369455,1.04910481
4.287771428,8.583603412,0.02920519783,-1.13102603,-0.3354718387,1.294484258
3.594034253,7.708455485,0.5315197828,-1.300689697,-0.382622838,1.35239017
1.712001194,5.030226456,1.68041217,-1.557755828,-0.3587739766,1.349163055
-0.3934302858,2.529525492,2.76389948,-1.936693072,-0.1792590618,1.232107759
-2.281154542,0.798435274,3.34490021,-2.430510759,0.03231762722,0.9612016082
-3.947040174,-0.996613329,4.172692804,-2.925388098,0.01199717633,0.6403623223
-4.741818095,-1.861887512,5.118091202,-3.150971174,-0.3995861113,0.4194327891
-4.343908033,-1.529494463,4.904920745,-3.07818079,-0.928973496,0.3021764755
-3.872030526,-0.6837070711,3.134773943,-2.886773825,-1.191008568,0.2523416877
-3.779541627,0.2712082199,0.597428133,-2.641392946,-1.260466933,0.3048264682
-3.431959485,1.355837686,-1.722269198,-2.388798714,-1.331616163,0.4002366066
-3.210423643,2.032058785,-2.947013237,-2.195195675,-1.4568367,0.4273014963
-3.571089431,1.850346712,-3.272317205,-2.107395649,-1.608915687,0.4162776172
-3.929788011,1.525616745,-2.979201689,-2.078095198,-1.636539817,0.4582642019
-3.75616952,1.456513983,-3.012126638,-2.045059919,-1.467842221,0.5692964792
-2.845796842,1.338778415,-3.542031971,-1.989289761,-1.172036171,0.6400481462
-1.762664629,1.168274549,-3.73301047,-1.973324656,-0.9206835032,0.6299286485
-0.9106588006,0.9765624747,-3.017539603,-1.991337776,-0.64842695,0.5512154698
-0.4098246635,0.8873200106,-2.64367531,-2.056940794,-0.2653856874,0.4044790268
-0.6808882142,0.5272708932,-2.8882381,-2.11194706,0.2197245359,0.4187114835
0.2174190543,1.21691203,-3.710846569,-2.161745548,0.4770988226,0.5966199636
1.94184017,2.479425536,-3.498585044,-2.200164557,0.3651006222,0.6618705988
1.810394641,2.305250288,-2.086661313,-2.18223691,0.1921082288,0.6329945922
1.166545533,1.905983843,-1.792328238,-2.092205763,0.2873471379,0.6717566252
0.8896519607,1.754482199,-2.731299818,-1.963861227,0.5443111658,0.7728241682
0.8177130982,1.759073619,-3.654274202,-1.836395144,0.8189842701,0.8512592912
0.4679305232,1.288456341,-4.031710508,-1.745899796,1.050201178,0.9016503096
-0.0801399969,0.6459966413,-3.93443116,-1.694114447,1.206235528,0.9218512177
-0.5383852847,-0.06542728868,-3.512349073,-1.623414874,1.265739083,0.9317021966
-0.9415250636,-0.8786614879,-3.089479342,-1.515709162,1.243093491,0.9436848164
-1.38000036,-1.658438823,-2.924419713,-1.392118931,1.193648696,0.9814901352
-1.761808889,-2.246901559,-3.020763533,-1.272969842,1.082686186,1.034136057
-2.102534882,-2.630999076,-3.374630163,-1.130791545,0.8933843374,1.052350402
-1.943000446,-2.966637391,-3.279479351,-1.014339805,0.7536474466,1.013266921
-1.698299709,-3.590200082,-3.432470942,-0.9486057758,0.7156778574,0.9223833084
-1.522577816,-4.168724193,-3.636246963,-0.9271559119,0.7949172854,0.8287979364
-1.260167235,-4.468067205,-4.016706416,-0.9338436127,0.9624665976,0.7699193358
-0.7909577777,-4.420952987,-4.466311885,-0.9067400694,1.083388448,0.7140880823
-0.4141536326,-4.396762548,-4.649769926,-0.7800773978,1.11170733,0.6576198339
-0.1517155791,-4.362447022,-4.903278823,-0.5288925767,1.056308866,0.5908109546
-0.05502426035,-4.474599237,-5.149624989,-0.1994908303,0.9893822074,0.5390599966
0.08246902437,-4.659370113,-5.327600798,0.1323813796,0.9926656485,0.4851890802
0.1460910172,-4.845242229,-5.399980975,0.4461648762,1.043552756,0.41725263
0.1222381402,-5.016643336,-5.100483649,0.7619408965,1.084764838,0.3289965391
0.1748077009,-5.286120787,-4.484354323,1.087590814,1.106841564,0.2204388231
0.2443207975,-5.537582104,-3.794833597,1.398340464,1.082999349,0.1076861769
0.3082420656,-5.641027281,-2.74737037,1.667624474,1.032115817,-0.01778831892
0.3512997015,-5.597433638,-1.584425785,1.868127823,0.9726751447,-0.1526065916
0.4382797736,-5.261169885,-0.2993491495,1.979334593,0.7639694214,-0.3360342979
0.1178103869,-4.666678975,1.624990435,1.939391732,0.4660435021,-0.5117091537
0.1917912766,-3.51633522,4.088829695,1.725389361,0.1361738443,-0.5998286605
0.5799383613,-1.727003825,7.081852111,1.377959967,-0.2418844998,-0.5900215507
0.9958172102,0.9678460842,10.02893315,0.7695841193,-0.4866542816,-0.4649175704
0.9462059148,4.670101351,12.92465576,-0.1818669438,-0.4262218475,-0.3286028504
0.2560764095,9.649870123,15.95353714,-0.8246086836,-0.1781521291,-0.111236535
0.4925210669,15.00883286,13.90655901,-0.9195256233,0.1584898084,0.2512564361
2.320416585,15.67717636,6.949778221,-1.103341579,0.4867154956,0.5621519089
3.19521526,11.05853807,3.86301486,-1.555714726,0.9356784225,0.7471145391
2.873506395,5.793478188,3.172806737,-1.90966332,1.510272145,0.7486541271
1.889073041,2.412923312,1.177507949,-1.866870642,1.954375029,0.5282418728
-0.1648965477,-0.03106324678,-1.039756597,-1.369120717,1.976360202,0.1290658861
-2.380012099,-1.6762305,-2.119241686,-0.4998626113,1.38629353,-0.3949187994
-4.586309553,-1.954592684,-2.518319623,0.3074046969,0.4782337248,-0.773067832
-6.406474477,1.221337446,-1.761967587,0.5747775435,-0.498272866,-0.7970600128
-7.378195357,7.80080936,0.9458461416,0.06343214214,-1.207352281,-0.3726929128
-6.414577704,13.78363289,4.30276383,-0.8956640363,-1.393327475,0.3210544288
-2.382497486,14.65083424,4.949450791,-1.096699476,-1.557183981,0.8129242063
2.519153151,8.012187088,-0.02818243065,-0.1837541014,-1.143840671,0.9632036686
2.118016529,-1.560762877,-9.790203892,1.012915015,-0.2929922938,0.9030086398
-1.030256655,-9.049640961,-15.196109,1.70366466,-0.03685212135,0.758675456
-2.686148132,-12.33508828,-11.16365264,1.806484222,-0.21401079,0.5180020332
-3.330343862,-13.30222534,-5.889961709,1.53436327,-0.5244437456,0.1707538068
-3.811882054,-13.5929677,-2.208428913,1.183595419,-0.9461940527,-0.2414167374
-4.014148256,-12.80849022,1.024885776,1.422533512,-1.484887719,-0.6912608743
-3.966588924,-10.27543889,-0.7986778506,2.177954197,-1.791706204,-1.038563728
-3.332725788,-5.958517359,-5.980276187,2.8826437,-1.828801394,-1.321711063
-2.938893351,-1.353217274,-8.39044114,3.360208035,-1.715470076,-1.58584857
-2.802611196,2.044676859,-8.563758894,3.526304007,-1.494407773,-1.769716382
-2.200175464,4.785597031,-7.575725177,3.265408516,-1.344121337,-1.665216088
-0.08874035973,7.090684237,-4.74928127,2.587108374,-1.404642224,-1.218504667
2.718950916,8.458186642,-1.036191306,1.744599104,-1.389747739,-0.7544131875
3.503321424,7.906678549,0.6325405091,1.130744696,-0.8108922839,-0.5093169212
2.75837341,6.066470954,-0.8197814289,0.910723269,0.04306761548,-0.387604475
2.45456056,3.609061434,-2.316692889,0.9654091597,0.5912178159,-0.3010048568
2.08000507,1.298884796,-1.930874393,1.110799909,0.71356076,-0.1808110625
1.578015918,0.136318688,-1.034940429,1.297867775,0.6176278591,-0.06568553299
1.290977384,-0.6057932258,-0.5261548948,1.493193388,0.2898322642,-0.07519522309
0.4404796217,-1.625458929,0.1050632066,1.696879387,-0.1186114177,-0.1111018285
0.06445405973,-1.897896399,0.1801298457,1.803593993,-0.435454607,-0.1511263847
0.1531590559,-1.821474253,0.09106617233,1.787930131,-0.5976829529,-0.2073145509
0.2776160412,-1.672890542,-0.1491934037,1.667673588,-0.5226659775,-0.2790211439
0.4458534237,-1.269685589,-0.8471265319,1.452133298,-0.2668054104,-0.345512569
0.8217591587,-0.6879507,-1.384058987,1.176238179,0.0418208614,-0.3873407245
1.281105978,-0.1025210478,-1.568377444,0.929297328,0.2775599062,-0.3609903455
2.042256062,0.3405295934,-1.421843651,0.8020475507,0.3434969485,-0.3003250062
2.583916423,0.4333616064,-0.7459469619,0.759465158,0.272763133,-0.2467488945
2.686646437,0.2748123819,0.3653548226,0.7652129531,0.1654800773,-0.2290691733
2.479674543,-0.05927461127,1.057505897,0.7924600244,-0.002332620788,-0.2126417309
2.160076678,-0.2314326744,1.374652861,0.8215387464,-0.2085276097,-0.1744785607
1.828021483,-0.3223819423,1.397541569,0.8525121212,-0.3331720829,-0.1330855787
1.420914846,-0.5196598337,0.9732675248,0.8731892705,-0.3121910095,-0.1330594718
0.9572802666,-0.8402771044,0.03687050829,0.87646842,-0.1699316055,-0.1900308877
0.2714782691,-1.084458201,-0.6608499271,0.9127939343,0.05685734376,-0.2670377195
-0.04410100753,-1.230368309,-1.226053953,0.952293992,0.316408217,-0.3477458954
-0.1125607958,-1.330754098,-1.222331644,0.9583329558,0.5113332272,-0.4340368211
-0.09992343252,-1.507828575,-0.3327747415,0.8940732479,0.5501357317,-0.540581882
-0.2066577141,-1.583418361,1.194499781,0.8006947041,0.4880532026,-0.6450083852
-0.1626636741,-1.415279471,2.350784543,0.7798368335,0.4218640625,-0.6923985481
0.2596311794,-1.073645715,2.324594894,0.8557312489,0.405814141,-0.6650773883
0.8650140708,-0.6471411352,1.46819083,0.9875507951,0.4034894705,-0.6320890784
1.219832886,-0.4433031547,0.6300964769,1.14092052,0.3574436605,-0.6544417739
1.125732461,-0.5517857413,0.1407967102,1.269628167,0.2904427946,-0.7082325816
1.029937799,-0.6950327672,-0.1159900396,1.34675324,0.2295225859,-0.749355793
1.012471992,-0.6259779357,-0.06901786052,1.369888425,0.1473486125,-0.7855215073
0.7630696538,-0.3597100947,0.7184376082,1.332475662,0.0830552727,-0.8188762069
0.492517852,-0.1469412043,1.61809483,1.247681141,0.02688681148,-0.8278409839
0.3680713881,0.2739648252,2.533952953,1.116084695,-0.08127469569,-0.8052642941
0.3998822384,0.7831096946,3.623512569,0.944062531,-0.2408806086,-0.7175504565
0.8503416946,1.326366092,4.344206432,0.7733666301,-0.3856283426,-0.5676888824
1.674956243,1.857302522,4.099503941,0.6568674445,-0.4754573107,-0.4118718505
2.411168577,2.182596553,2.870123182,0.6132167578,-0.5129884481,-0.3417772353
2.786378731,2.27198807,1.464689252,0.5854455829,-0.4670331776,-0.3303051293
3.309378815,2.357885315,0.2887931226,0.5433952212,-0.2926307619,-0.3347426653
3.874061739,2.735538478,-0.5677957958,0.4855750501,-0.1028070226,-0.3236356974
4.347614487,3.576804594,-0.3435490874,0.4275262952,-0.04408630729,-0.259757936
4.42699402,4.994719674,0.9511348957,0.3584697247,-0.09348928183,-0.1360953897
4.184030775,6.767792007,2.246873064,0.2660618424,-0.1780268252,0.0583906509
3.98939843,7.885757926,2.838035561,0.09576198459,-0.2705250382,0.3075205684
3.730812375,8.250470359,2.563979258,-0.1449927092,-0.2810903192,0.5832146406
3.369524656,8.417187108,1.346913206,-0.370416522,-0.18296884,0.884295404
2.952524694,8.821369966,-0.04242810588,-0.5421363711,-0.08571405709,1.224310756
2.302273026,9.229677795,-0.3622670857,-0.7295613885,-0.1169124544,1.508656144
0.7703273699,8.557072548,0.7981114489,-0.9620648026,-0.2947544754,1.570355177
-1.787284983,5.955578383,2.62596985,-1.296591163,-0.5076358914,1.454160213
-3.749919519,2.599847567,4.244646279,-1.720208168,-0.553067565,1.313990951
-3.983879374,0.3431102576,4.724890341,-2.147372484,-0.392901808,1.115387082
-4.067717056,-1.21584937,4.457253842,-2.530538082,-0.1896641105,0.8401747346
-4.326825966,-2.413380408,4.251593614,-2.820976973,-0.252543211,0.5791087747
-4.324193863,-2.873036731,4.728271215,-2.939682007,-0.720261991,0.3865781426
-4.119874821,-2.319189966,5.09878912,-2.877569675,-1.318009853,0.2551335692
-4.14759548,-1.231172027,4.239517392,-2.687091827,-1.659261107,0.1823196858
-4.23888377,0.138829794,1.513160584,-2.433344841,-1.777937412,0.1668115556
-4.214517683,1.345679865,-1.354989545,-2.176605225,-1.798152208,0.1863332838
-4.001514107,1.953449944,-3.480349714,-2.072588444,-1.806797385,0.2355578095
-3.626697336,1.937305449,-4.262990622,-2.178740501,-1.710190415,0.2884317338
-3.145308489,1.784038549,-4.075162696,-2.344727516,-1.391575933,0.3281951249
-2.341569556,1.411153915,-4.486157573,-2.378684998,-0.8658470511,0.3882139027
-1.198364859,1.119705456,-5.183801984,-2.25904417,-0.4887673557,0.4715093374
0.0485208698,1.158882451,-4.401198485,-2.161500692,-0.3183096051,0.5032613873
0.6212482768,1.330025784,-2.258196276,-2.116887093,-0.2421450615,0.4662895799
0.5192062447,1.427482534,-0.9223881091,-2.07665801,-0.243028447,0.4139604867
0.1639867394,1.488345291,-0.7982903126,-1.974466205,-0.2618330121,0.5415200591
0.8288552544,2.455045128,-1.679289303,-1.860565066,-0.4304234982,0.7621064782
1.670455132,3.397136593,-1.77366387,-1.760742545,-0.5290437937,0.9171873927
1.107537756,3.141815678,-2.027351923,-1.687467217,-0.452173233,1.021502852
0.5278972084,2.502536947,-2.61933728,-1.606445074,-0.21488747,1.103052258
0.1120771039,1.890836543,-3.172173407,-1.535086036,0.1248334795,1.190678239
-0.2049894886,1.509794907,-3.688555535,-1.499410272,0.4356150627,1.240460157
-0.6263879778,0.9395949723,-3.522374792,-1.460450292,0.6316462159,1.21752429
-1.31456518,-0.03194821292,-3.17031492,-1.416146278,0.7509230971,1.172459602
-1.780427957,-0.9429349304,-2.930618275,-1.387256861,0.7886558771,1.127042174
-1.991654879,-1.665340273,-2.707431451,-1.381132364,0.8097084761,1.076821327
-2.268802426,-2.377738017,-2.61983237,-1.34837091,0.796852231,1.021451354
-2.387629296,-2.952226588,-3.128539433,-1.346659064,0.7596300244,0.9578867555
-2.241476612,-3.541905714,-3.165798027,-1.384024262,0.8494454622,0.8713904023
-1.963528854,-4.179160246,-3.873437762,-1.427941084,1.003308296,0.7887061834
-1.458438521,-4.529725496,-4.491870105,-1.448659778,1.16834271,0.7049156427
-0.8667484934,-4.746604745,-4.946030754,-1.398346305,1.243293881,0.5998102427
-0.3553593522,-5.017880769,-4.941404263,-1.246567369,1.251954198,0.4963359237
0.0431307012,-5.1853346,-5.098475232,-0.9910878539,1.176309824,0.4012016654
0.3364467081,-5.38191165,-5.064717339,-0.6659467816,1.080971718,0.3000586927
0.4091011715,-5.62694381,-5.043652924,-0.2995085716,1.003113389,0.221265614
0.3551929096,-5.782969069,-5.008779763,0.06914059818,0.995450139,0.1484943777
0.2549833536,-5.814889225,-4.812182548,0.4259554446,1.032860279,0.08908112347
0.2146834919,-5.683024009,-4.396408328,0.7547285557,1.109418988,0.04076518491
0.2629761059,-5.401970687,-3.859866041,1.062229156,1.189932704,0.0004350719973
0.3571726852,-5.147149538,-3.174270672,1.354894161,1.256074429,-0.04933958501
0.685147333,-4.976078686,-2.420236557,1.619237185,1.28417635,-0.1213679761
0.876293882,-4.698944583,-1.383316645,1.829174399,1.258650064,-0.1853910834
0.970149685,-4.111476703,-0.1699836417,1.958693504,1.107641935,-0.3054668903
0.697223263,-3.133998867,1.44454882,1.962724328,0.905655086,-0.3972229064
0.6417284625,-1.399220316,3.349196154,1.764150858,0.7231768966,-0.3841622472
1.14282768,0.7967471748,5.639506939,1.363796115,0.5848965645,-0.2824484706
1.49865012,3.323741687,8.309594748,0.7395734191,0.5605318546,-0.1567225009
1.539077115,6.297590909,10.49011157,-0.0439668484,0.6806928515,0.01384808309
1.484001709,9.530883678,11.8684516,-0.6551876068,0.8652983904,0.3261159956
2.444369713,12.57625032,10.45063179,-1.001394272,0.9792170525,0.6498381495
3.215191004,12.89301209,7.612904277,-1.318266749,1.172996044,0.9169172645
3.376521091,9.607197103,5.789109472,-1.705604911,1.325543404,1.027656555
2.950202973,4.486842048,5.196738622,-1.890884757,1.329379201,1.03337419
2.140798854,0.560177722,3.74449954,-1.721194506,1.335511088,0.8208674192
-0.2409253099,-1.831763007,1.336094582,-1.187499881,1.318585396,0.3281054199
-3.741714878,-2.254888467,-1.018722577,-0.4386566281,1.206170201,-0.3567450345
-7.288107674,-0.7007470532,-2.442563248,0.2382081449,0.8717223406,-0.8486583233
-8.773957642,2.31785258,-2.31626648,0.5253924131,0.1743807942,-0.8151205182
-8.67745074,6.231596049,-0.9006292818,0.2755833566,-0.4600198567,-0.3482323885
-7.73269327,9.607582303,0.59869713,-0.4689804912,-0.7212763429,0.06497633457
-5.314769374,9.517752394,2.601919697,-1.287689924,-1.332159162,0.37067312
-0.4039066716,6.079841892,6.678645405,-1.456590414,-1.851449132,0.6469823122
2.482716102,3.163005766,3.286847834,-0.7726301551,-1.661784172,0.7152042389
1.364894561,-2.119205738,-5.815994556,0.4383307397,-0.6927719712,0.5237240195
-1.367993988,-8.904776563,-13.59886319,1.4224298,-0.072343871,0.3613622487
-2.174651147,-12.17396132,-13.44517601,1.877095103,0.06073665991,0.2298931181
-1.984653768,-12.73900343,-9.418811543,2.046286583,-0.08301331103,0.1083222106
-1.483499605,-12.79143387,-6.524100155,1.830453873,-0.7007609606,-0.03836774826
-1.204965864,-11.94964753,-0.97012835,1.580058932,-1.773027897,-0.2684552968
-1.184036474,-9.189465027,3.402808209,1.905607104,-2.347052574,-0.5389419794
-1.543032867,-3.572023789,-2.517083067,2.535737038,-2.390962124,-0.8745269179
-2.313070899,1.378393217,-8.215077558,2.994918346,-2.189088583,-1.270139098
-3.11761881,4.996065243,-9.076391606,2.975794077,-2.031596422,-1.457054377
-2.114006708,7.945287973,-6.227429577,2.41258955,-1.998826742,-1.287481308
0.6761737529,9.524692423,-1.764382831,1.634420395,-1.670060515,-0.9879867435
2.150563,8.856521943,0.3656253101,1.037409067,-0.7440124154,-0.7754955292
1.965091866,6.425137092,-0.9528621579,0.7362548113,0.3310961127,-0.5761376619
1.757401302,3.600971651,-2.188232513,0.6807040572,0.9354970455,-0.361228168
1.477144975,1.626534449,-2.281607693,0.8413376808,0.9484016895,-0.1779842973
1.042721585,0.4073398609,-2.056130566,1.173187375,0.6291502714,-0.05816142634
0.7230465633,-0.4961620537,-2.284935814,1.5974617,0.1637022048,0.02045429125
0.3685056879,-1.020260162,-2.46522107,2.003606319,-0.3585846722,0.0611005798
0.003080430359,-1.347870068,-2.303383325,2.270604134,-0.8312715292,0.09452272207
-0.01201835457,-1.487262172,-1.916352677,2.284553528,-1.092867255,0.03143061325
-0.3762330673,-1.540822498,-1.431212368,2.019761801,-1.006813765,-0.100667499
-0.7016244205,-1.489283449,-1.251013622,1.634780765,-0.7006247044,-0.2016837746
-0.5507295102,-1.065692126,-1.372214236,1.259698272,-0.2179741412,-0.3054535985
-0.4285276104,-0.4776408931,-1.823565526,1.034990311,0.2254872918,-0.3433971107
-0.02924158431,-0.06057634152,-1.989062524,0.9943618774,0.456589222,-0.3438327909
0.4820394203,-0.03959785089,-1.377085641,1.06615746,0.4691164792,-0.319214493
1.000733624,-0.2463660396,-0.3164917153,1.143168092,0.2937494516,-0.2961328924
1.347431385,-0.4551075743,0.8320037816,1.158478618,0.08676178753,-0.3034645915
1.42318659,-0.7348118199,1.500837693,1.086557031,0.01032879949,-0.3281531632
1.489442439,-0.8958259732,1.33842361,1.066002607,-0.1128154248,-0.3355808258
1.386767662,-0.8080529972,0.8375164075,1.091884255,-0.3030892015,-0.3186918497
1.126320198,-0.722945441,0.5301993479,1.124815106,-0.4725779593,-0.3162186146
0.737678023,-0.7803811464,0.2438403205,1.149715304,-0.5374016762,-0.3312793374
0.3431634491,-0.9105185154,-0.2622982797,1.142239332,-0.484831959,-0.3789210618
-0.1205661153,-1.053788922,-0.6645545538,1.120788455,-0.3446306288,-0.4475086629
-0.4652718254,-1.253282736,-0.9001052579,1.124019861,-0.1792295575,-0.5250820518
-0.7515253465,-1.362815124,-0.9175677763,1.1607728,-0.03803675249,-0.6037952304
-0.9084694739,-1.462152281,-0.6176169346,1.196419477,0.07175781578,-0.6986221671
-1.042528108,-1.646490611,0.08180442298,1.198932648,0.1438240111,-0.7937050462
-1.073339426,-1.808446429,1.015325044,1.153401613,0.1869461387,-0.8802727461
-0.9116901895,-1.781554915,1.909697896,1.127099156,0.1980147809,-0.9477045536
-0.471088695,-1.524618382,2.392847323,1.200100183,0.195580706,-0.9672322869
0.2145095966,-0.8768243356,2.22931578,1.341392279,0.1654270589,-0.9596098065
0.7787877397,-0.06717500913,1.894175332,1.465105653,0.06286469102,-0.9352270961
1.253536711,0.6442027437,1.903686088,1.496032953,-0.08950833976,-0.897693038
1.819566666,1.09534726,2.072192351,1.405667901,-0.2251263261,-0.8550896645
2.407146774,1.165184181,2.270910796,1.234548807,-0.3064512908,-0.815736711
2.69499341,1.119044946,2.464887308,1.015329599,-0.3093735874,-0.7668483257
2.883121195,1.255950494,2.454023676,0.8118298054,-0.2029406279,-0.6675810814
3.108957657,1.475744753,1.917801122,0.6520508528,-0.03281800076,-0.5637355447
3.242610341,1.79057175,1.300322135,0.52607131,0.1033464968,-0.4579457343
3.270245367,2.106747239,1.143861553,0.4451269209,0.149037838,-0.3660088181
3.140401428,2.522694769,1.383952166,0.4356993139,0.1141166165,-0.2672968805
2.85027691,3.068988927,1.706101907,0.5290720463,0.001739436295,-0.1664040387
2.314715743,3.480095447,2.182617888,0.6666150093,-0.2484792024,-0.08329424262
1.615162576,3.693445937,3.043454673,0.7310976386,-0.6499199271,-0.05285130441
0.7105410097,3.667605978,4.127867866,0.6369857788,-1.013464689,-0.06158940494
-0.04338233787,3.578035597,4.553908336,0.455493331,-1.091311097,-0.01955775172
0.04522124373,4.059371837,3.335101285,0.2734132707,-0.9499297142,0.08891572803
0.7719456187,4.885419341,1.853022653,0.06137629226,-0.8425669074,0.252432704
1.62734635,5.849950602,1.245021834,-0.1965601891,-0.762755394,0.447776109
2.336974337,6.741434162,0.8393354397,-0.4844014347,-0.6207029819,0.6736975312
3.060661828,7.422364169,0.4829596039,-0.7585461736,-0.4919742644,0.9025757313
3.456587146,7.774162176,0.7561060984,-1.005024314,-0.477763772,1.07988584
3.071324092,7.252751114,1.511037746,-1.245432138,-0.5794946551,1.186617017
1.918195967,5.582779674,2.411750761,-1.519781232,-0.6955735683,1.213937879
0.06171732824,3.165648974,3.246839649,-1.859499931,-0.6586310267,1.149229884
-1.760084257,1.274660455,3.802791278,-2.257225513,-0.5577720404,0.9607350826
-3.23706089,-0.4411521141,4.319717887,-2.661095858,-0.5967738032,0.7464557886
-3.984189755,-1.290096509,4.93366344,-2.875443459,-0.9136205912,0.6015567183
-3.811678933,-1.150290564,4.595912079,-2.910290003,-1.248077869,0.4594560862
-3.623448564,-0.666709759,2.91131064,-2.829033852,-1.306426644,0.3234758079
-3.648871467,0.04557984791,0.1646159772,-2.598332644,-1.228591442,0.2867441475
-3.462040735,0.9704799399,-2.504094114,-2.319944382,-1.20236361,0.3130471408
-3.470214397,1.696350328,-3.744443718,-2.086440802,-1.305516362,0.3219450116
-4.063724772,1.703069992,-3.528162436,-1.962885737,-1.41230464,0.3289122581
-4.402737823,1.56194595,-2.824612016,-1.916907787,-1.348603249,0.4086449146
-3.78855437,1.403508953,-2.703746917,-1.909495711,-1.188353181,0.5296356678
-2.40596867,1.271699267,-2.494370007,-1.919305205,-1.09884274,0.5984448195
-0.9213760095,1.029834631,-1.833973669,-1.933744788,-0.9772587419,0.6251476407
0.1101861756,0.8214999232,-1.560470178,-1.964152813,-0.7139720321,0.6335664392
0.5654138691,0.8054886996,-1.836824675,-2.004667997,-0.3053583205,0.5538836718
0.2757905793,0.4778624269,-2.321644958,-1.984526277,0.177595824,0.5642659664
0.8324398349,1.073611813,-3.411067504,-1.975463629,0.3014839292,0.6608240604
1.880205551,2.423000469,-2.609125683,-1.961134553,0.1287409216,0.6484368443
1.275705288,2.255623795,-1.430297007,-1.935310125,0.02491229959,0.6344299316
0.8655366334,2.060225726,-1.795960165,-1.883116364,0.1755484045,0.6900013089
0.8543605748,2.079413242,-2.820263757,-1.828198552,0.487914145,0.8386059999
0.9828107214,2.11346398,-3.772478849,-1.801465154,0.7767843008,0.9477556944
0.4976920398,1.427015501,-3.904871304,-1.776071906,0.9257395864,0.9366502762
-0.4051958346,0.2597697111,-3.519907525,-1.745205164,0.9851251245,0.8978770375
-0.8412672845,-0.6097276426,-2.998991262,-1.687672615,0.9857954383,0.9103856087
-0.9901189986,-1.179228489,-2.754239087,-1.609215379,1.02016151,0.9625164866
-1.215550094,-1.879908322,-2.961855417,-1.550685287,1.007956028,0.973882556
-1.704341327,-2.5918969,-3.19594299,-1.474872589,0.9198473096,0.9418407679
-1.918819944,-3.281764832,-3.179011729,-1.403629899,0.8643539548,0.8876709938
-1.754540359,-3.812854991,-3.347098013,-1.400688767,0.9126868844,0.8128423095
-1.391241885,-4.086231787,-3.659832421,-1.420426965,1.080179691,0.747166574
-0.9334504782,-4.109194145,-4.336436674,-1.382467031,1.25845921,0.7117060423
-0.4514879225,-3.950714479,-5.051044203,-1.229371905,1.388513446,0.6602226496
-0.2558884857,-3.98340445,-5.584706258,-0.9862098694,1.456730008,0.6292005777
-0.05749532664,-4.076750842,-5.973177168,-0.7232274413,1.451541662,0.5965567231
0.1818272242,-4.200426322,-5.701985899,-0.4803141356,1.442998528,0.5510398149
0.3278112739,-4.36979037,-5.175372009,-0.2575314045,1.465308547,0.5130944252
0.6853171366,-4.407328951,-4.698738831,-0.04376345873,1.414921522,0.4768831432
0.9492644256,-4.35499203,-4.020398256,0.1969943047,1.307671428,0.4316120744
1.039947736,-4.251640376,-3.335463104,0.4317447543,1.216196895,0.4047769904
1.152268001,-4.136374998,-2.670679637,0.6837624907,1.07243526,0.3243298531
0.7823217591,-4.071965946,-1.922168962,0.9242811203,0.9215135574,0.2321101725
0.6170762518,-3.918990722,-1.076008937,1.132480025,0.8153899312,0.126024738
0.5904565404,-3.69734879,-0.1881894527,1.302993178,0.6968041658,0.0009712101892
0.4080260896,-3.295766469,0.8603390647,1.408199668,0.5882866383,-0.1120867357
0.3212701817,-2.573408473,2.024126823,1.434170008,0.5029035807,-0.1804061532
0.4323915923,-1.478105052,3.19224472,1.352472305,0.4642984569,-0.19369331
0.5636725784,-0.1584007559,4.417342103,1.161491871,0.487025857,-0.1427220106
0.9241250159,1.31985335,5.852023901,0.8853676319,0.5802173615,-0.01560104825
1.580650358,2.875418658,7.052829431,0.503644228,0.7092123628,0.07162253559
1.713178714,4.505928441,8.036896582,0.008284581825,0.8714709282,0.1854839325
1.858350862,6.598894407,8.95443579,-0.5178225636,0.9334091544,0.3095307946
1.700741257,8.768397085,9.062483492,-0.9319200516,0.9087637067,0.4609428346
1.79524471,9.502546057,7.449697582,-1.310746551,0.9689527154,0.6390352845
1.981083216,8.1740827,5.606075794,-1.753473401,1.18121171,0.8072864413
2.276937509,5.540888744,4.635805405,-2.079505682,1.472825646,0.8549141288
1.955156747,2.026646697,3.168993316,-2.083694935,1.814094305,0.7850909829
1.309291916,-1.201414602,0.6047603756,-1.715650797,2.088246584,0.5579856634
-0.5397609569,-3.682044837,-1.522023981,-0.9863437414,1.997693419,0.1642529666
-3.038876113,-4.207607173,-2.525950264,-0.1186547428,1.701120496,-0.350268662
-5.030700503,-2.636134686,-2.754900766,0.6138711572,1.250363469,-0.6795361638
-5.592895995,0.01919394529,-2.035129571,1.10674262,0.3940688372,-0.7159644961
-6.319308235,2.981937836,-0.5173381127,1.206908822,-0.4802832603,-0.5488852859
-7.536815893,6.286277488,-0.06091273386,0.8424094915,-1.066147804,-0.2719088197
-8.629795839,9.43738531,1.052919154,0.005180524662,-1.406949401,0.06660962105
-7.092873856,10.4290302,4.287297673,-1.013143063,-1.824359655,0.3118502796
-2.768273165,7.522856926,7.794918548,-1.29847455,-1.85649693,0.4597028494
-0.22437165,3.431774192,2.250231873,-0.426091671,-1.372632861,0.4776885211
-0.01534486865,-2.521959441,-8.647209915,0.9115820527,-0.5811617374,0.3494269252
-0.5913181257,-8.685203838,-15.05061916,1.767282844,-0.1525568813,0.2606690824
-0.6428574665,-11.04000171,-12.82080376,2.05566144,-0.1682138443,0.1740261018
-0.3942813496,-11.08884786,-7.917007635,2.010503292,-0.5059860349,0.07130531222
-0.07833119392,-10.83530331,-3.966865111,1.747890234,-1.288891912,-0.07282313704
0.1253863751,-10.25280621,0.9223857711,1.758242011,-2.263405561,-0.2653625011
0.3548348899,-7.812568186,1.398633749,2.158102036,-2.563750029,-0.4838283658
-0.02180442005,-3.15369667,-4.28282608,2.71642065,-2.297139645,-0.787306726
-0.8697691564,0.6075672497,-9.089896399,3.012731075,-1.963351488,-1.100007415
-1.271110654,3.586020166,-8.706661637,2.878074646,-1.880498052,-1.259048223
-0.4982087571,6.302758082,-4.941826288,2.344266891,-1.906148314,-1.175029039
1.222668402,8.299044128,-1.10513011,1.662321687,-1.518669844,-0.8775983453
2.611652571,8.7566178,0.2939091504,1.123744488,-0.6721593142,-0.5637402534
2.838412577,7.151012157,-0.2959937016,0.8637180328,0.2329982519,-0.3016636372
2.392116671,4.152973081,-1.0867279,0.8412653208,0.7326247692,-0.1285423934
1.548785147,1.597542748,-1.450929461,0.9764505625,0.7750811577,-0.04451300576
0.7264686467,-0.0893938552,-1.458158974,1.231200814,0.5221188664,-0.01069995947
0.3622948505,-1.15564946,-1.483119227,1.505500197,0.1725462079,-0.02378673479
-0.002317629293,-1.806416385,-1.399299811,1.753440499,-0.2031346112,-0.06029407308
-0.3191933754,-2.114971462,-1.189644815,1.872173071,-0.588635385,-0.1311354786
-0.5462339523,-2.40580442,-0.5574434017,1.890766621,-0.8313758373,-0.2279527485
-0.6432198701,-2.425871056,-0.4406137695,1.768601656,-0.7336330414,-0.3654008806
-0.6163833011,-1.886600513,-1.182429331,1.52517271,-0.3624044657,-0.459305048
-0.3144482267,-0.8793722665,-1.723579696,1.266901135,0.0917012468,-0.4961424172
0.1884030955,0.2870008324,-1.911847183,1.072584987,0.5176141858,-0.494405061
0.8437684537,0.9932727864,-1.983425395,0.9896913767,0.8042866588,-0.4485267997
1.715609156,1.244320262,-1.593108565,1.024699807,0.836535573,-0.3798044026
2.495719084,1.156815581,-0.6189888074,1.116761327,0.6617389917,-0.2840280831
2.939197303,0.8766524861,0.605613193,1.209230185,0.4047188163,-0.2080965191
2.918906795,0.4104869268,1.19913029,1.283454895,0.114020668,-0.1620850861
2.567356625,-0.1540519131,1.304908294,1.297248602,-0.08722384274,-0.1292078197
2.140823696,-0.6382283454,1.081473048,1.269895792,-0.1633036882,-0.1033131033
1.604979036,-1.095647119,0.6491459722,1.220345855,-0.1487773359,-0.1225117594
0.7287628951,-1.56583945,0.2741529682,1.175492406,-0.1065718308,-0.2040654719
-0.2536792853,-2.053110926,0.07838781947,1.155085206,-0.01302951388,-0.3282896578
-1.058269282,-2.436417585,-0.1998399238,1.159535885,0.09319598973,-0.4579826593
-1.690444611,-2.407040683,-0.3294937471,1.204707026,0.1843896806,-0.6033478975
-1.947271547,-2.266899222,-0.3915199221,1.251318932,0.2491356432,-0.7266602516
-1.783239507,-2.114887875,-0.18398864,1.242870688,0.3266275525,-0.8318608403
-1.364348909,-1.958061237,0.309071356,1.197399378,0.3981565833,-0.917555213
-0.8908929007,-1.77148185,0.969133786,1.139764309,0.4457114339,-0.9937611222
-0.37290743,-1.572376158,1.6261228,1.148474216,0.4465743005,-1.031782508
0.2101978709,-1.151744854,2.114125512,1.273512006,0.3868337572,-1.032517314
0.6461190987,-0.4128764523,2.409631284,1.429495454,0.299954772,-0.9959534407
1.018461004,0.5244166728,2.606765676,1.505559087,0.1359464675,-0.9278627038
1.406549344,1.289167704,3.140070004,1.438149691,-0.07420703024,-0.8510938883
1.98519825,1.732110209,3.597355799,1.247887015,-0.2508943677,-0.758431077
2.602030464,1.774111029,3.615455519,1.035990477,-0.3312930763,-0.6474038959
3.218485661,1.78300336,3.000924276,0.8390019536,-0.2634681463,-0.533513248
3.39785234,1.956556677,2.075128696,0.6544206738,-0.08470080048,-0.4032870829
3.440538513,2.355492283,1.124599657,0.5103371739,0.08752083033,-0.2915141582
3.417840943,2.48764859,0.6182397426,0.4088614285,0.1568793952,-0.2308555841
3.143159787,2.339897823,0.7936977241,0.3626798391,0.1272186041,-0.1863676459
2.65862475,2.498058925,1.368879246,0.3944161832,-0.01976791024,-0.1306516528
2.017415635,2.954307486,2.149049088,0.4443585873,-0.2924755216,-0.06631419063
1.204150164,3.436668978,3.273727071,0.4221051931,-0.6087671518,-0.02088519
0.4585898634,3.939229793,4.222538785,0.3366688788,-0.8388392925,0.06261020899
0.1906388917,4.611994614,4.008846058,0.2398438156,-0.9529126287,0.1982007921
0.4649260807,5.289141011,3.05085472,0.1032177359,-1.051246881,0.3831200898
1.068395832,5.783457145,2.439614043,-0.1238063574,-1.171976805,0.5775859952
1.624352429,6.413149133,2.088300312,-0.4427726865,-1.17563355,0.7553107738
2.108592574,7.254898648,1.558309931,-0.8249565363,-1.029706478,0.9217658043
2.458526541,8.037191181,1.024760981,-1.163794994,-0.8434612155,1.095228791
2.5811718,8.531074184,0.6906774946,-1.416435957,-0.7047499418,1.280546665
2.271362924,7.864726828,0.6629258566,-1.568659544,-0.679921627,1.420738459
1.143729013,5.264869324,1.414592073,-1.803656936,-0.702791512,1.441044807
-0.9842261412,2.161593512,3.237123726,-2.244681835,-0.6503453851,1.29276228
-3.237219588,-0.1271352646,4.943086517,-2.769360542,-0.6900967956,1.021842599
-4.927814129,-1.580029888,6.078611473,-3.028663397,-1.005560398,0.7541991472
-5.441960752,-2.046897458,5.413425563,-2.961364031,-1.410608768,0.5730727911
-5.048498026,-1.51612411,3.202133661,-2.753044367,-1.549842596,0.4343672991
-5.002069452,-0.5335439821,0.5246212555,-2.499565363,-1.469441414,0.3888797164
-4.706793835,0.6351666198,-1.988372788,-2.263599634,-1.383503556,0.4041813314
-4.366113435,1.392738553,-3.404049734,-2.113512993,-1.451256037,0.3821338117
-4.713684764,1.395427938,-3.398276996,-2.068431139,-1.556319714,0.3215332627
-5.078748202,1.268844462,-2.800698056,-2.062870741,-1.505098581,0.2926206291
-4.704002451,1.069120931,-2.871761889,-2.057587385,-1.222106338,0.337067306
-3.228540314,1.007999815,-3.295230463,-2.060604334,-0.919151783,0.4405047596
-0.9418708083,1.216830197,-3.157493725,-2.091603756,-0.6862692237,0.5315690637
0.5611705325,1.406286017,-2.32087222,-2.110667944,-0.4534002542,0.5592563748
0.9319739759,1.368808227,-2.074310512,-2.104937553,-0.155255571,0.6194973588
1.158416002,1.663821101,-2.322502013,-2.093356371,-0.05109960958,0.742780447
1.933382138,2.432671384,-1.989532187,-2.065076113,-0.1369930506,0.7423158288
1.235529345,2.094419088,-1.643558357,-2.016227245,-0.2540602684,0.6846621037
0.3316197263,1.67601072,-1.936596132,-1.959825635,-0.2548857629,0.6451284289
-0.1811781127,1.519516675,-2.559311558,-1.920501709,-0.07713094354,0.6536399126
