accelerometer.z,accelerometer.y,accelerometer.x,gyro.z,gyro.y,gyro.x
-0.1207820962,1.123302019,-0.9167372438,-0.2533277273,0.1603593081,0.5214141011
-0.008065817556,1.203826339,-0.9207825736,-0.241328299,0.1900586188,0.5362881422
-0.1145651213,1.168312835,-0.8840887736,-0.197981745,0.1709644198,0.5118816495
-0.2306207735,1.027148753,-0.827429021,-0.1393727511,0.1000870466,0.4468366206
-0.3038362318,0.8598010123,-0.7270337332,-0.07598363608,0.005362324882,0.3612603843
-0.3560229307,0.7477841142,-0.6929663362,-0.01291092765,-0.09352937341,0.2940872014
-0.2425625557,0.6716197429,-0.6329730553,0.03854504228,-0.210636735,0.2386538535
-0.2084597951,0.6860553878,-0.5672599354,0.07190538943,-0.3405918181,0.2035832107
-0.2038005711,0.7698577066,-0.5411674627,0.0917930603,-0.3466265202,0.2028874904
0.05257715946,0.802915342,-0.5979702771,0.1113603711,-0.2418377995,0.2657066584
0.3406055813,0.7165811667,-0.7950124599,0.1284971386,-0.1678827405,0.3816249669
0.06039981591,0.6629530368,-0.9735758601,0.1419133395,-0.1964579374,0.5342988968
-0.4981342306,0.7298901456,-0.9213431301,0.1463956535,-0.2983339727,0.7136440873
-0.7767495119,0.8102923005,-0.6648237992,0.1472665071,-0.4378660321,0.8941978812
-0.7767483429,0.8683400004,-0.4015704837,0.1342763901,-0.5537606478,1.041264772
-0.707685328,0.9032610916,-0.2455954936,0.0883352682,-0.5960755944,1.114704847
-0.5599462514,0.8322256077,-0.1938302351,0.02102358453,-0.49587515,1.095296264
-0.3044932344,0.6041998191,-0.1559276438,-0.0399255231,-0.2665543258,0.9546650052
0.006343816069,0.2584171274,-0.1849884647,-0.08927977085,0.006795186549,0.7077690959
0.1954343093,-0.05017535901,-0.1721373126,-0.09660080075,0.2248950303,0.3913075626
0.2429384033,-0.3182224846,-0.05292626515,-0.07052432001,0.3206983209,0.05296203867
0.2569692667,-0.4214133945,0.1424665431,-0.01520619728,0.2899254858,-0.2599924207
0.2824012296,-0.469660708,0.3940660995,0.06064670905,0.1506718844,-0.4646265209
0.2905950575,-0.5916428276,0.6730490451,0.1338357031,-0.02318939567,-0.5966076851
0.1017728598,-0.7040151151,0.9435599304,0.1791110486,-0.1615944952,-0.6475920081
0.1608627621,-0.7404816822,1.078256424,0.1875665784,-0.1984989792,-0.6250667572
0.5562199243,-0.6566480915,1.062341208,0.1307275593,-0.151922226,-0.5365670919
0.9920698404,-0.5401347587,0.9388716264,0.02304929122,-0.08967404068,-0.3811088204
1.268995269,-0.3610024726,0.8449488956,-0.1051235572,-0.06591571867,-0.1854520291
1.305031043,-0.1079816513,0.9404930902,-0.2329004258,-0.08906657994,0.03259562328
1.083002742,0.05284224013,1.121354684,-0.3468163908,-0.1359932572,0.2273870111
0.8903057484,0.1614133817,1.246097355,-0.4267274737,-0.1886063963,0.35932374
0.7793348522,0.2234258935,1.208020283,-0.4619325697,-0.200864926,0.4099261165
0.869531256,0.2235410444,1.065526268,-0.441154331,-0.2106230259,0.3346287012
0.9354863679,0.07031973689,0.9292531726,-0.3740042448,-0.2717308402,0.125625968
0.7906096949,-0.1740165505,0.8872657962,-0.2820910811,-0.2817480564,-0.1804948002
0.6562713671,-0.3952534095,0.9394805521,-0.1799220741,0.03700209409,-0.4194019139
1.219132629,-0.6492413224,0.7495616452,-0.1037753671,0.3344982266,-0.5715680122
1.324264736,-0.7577917134,0.3323074163,-0.08288548887,0.5329232812,-0.7024757266
0.695469405,-0.5309384758,0.3641844637,-0.09886924922,0.6527271867,-0.7631955147
0.4357295046,-0.3824696236,0.5618259276,-0.1446527839,0.7472949028,-0.7744694352
0.5391916326,-0.3742889474,0.6776100694,-0.2020068914,0.8515997529,-0.7315477729
0.7076414889,-0.3320335678,0.7322847856,-0.2681660354,0.8344031572,-0.6549765468
0.4554653017,-0.1838809419,0.6786005417,-0.3415611684,0.6674807668,-0.6066734791
-0.1176677635,-0.1098509523,0.7604659011,-0.3923088014,0.4480710626,-0.5466317534
-0.3748018654,-0.2198532958,0.9995546432,-0.4321568608,0.2150982618,-0.4820772707
-0.486877508,-0.3427864325,1.16610568,-0.4597941339,0.03665572032,-0.3930394351
-0.6874550254,-0.3441936689,1.115236786,-0.4844632447,-0.0591962412,-0.2782510817
-0.7052379349,-0.2643877263,0.802475124,-0.5046668053,-0.05701332539,-0.1921651959
-0.6841296804,-0.1734580398,0.4441149095,-0.5251494646,-0.0003737490624,-0.1382748038
-0.6608914281,-0.1693999966,0.04913606082,-0.5539126396,0.07119295746,-0.1231837198
-0.5648901375,-0.2567237675,-0.2789851376,-0.6059268117,0.1091472581,-0.1193479747
-0.566640196,-0.3281292538,-0.4143395471,-0.6820301414,0.1153414845,-0.1122592688
-0.5884598137,-0.3336167453,-0.5159981694,-0.7678739429,0.1535985768,-0.1088698655
-0.4251397215,-0.3439674589,-0.5961243569,-0.8498162627,0.2464101762,-0.118171066
-0.01421557236,-0.3692451081,-0.6666858667,-0.9100399613,0.3124035597,-0.1503404528
0.2249216851,-0.4023679177,-0.797222318,-0.9454271197,0.3044282794,-0.1806854457
0.1835007104,-0.4037725238,-0.8452790774,-0.9606859684,0.2645663321,-0.1778331995
0.1179278758,-0.3916132995,-0.8503562346,-0.9748536348,0.2106556147,-0.1347403973
0.1151513968,-0.2838905914,-0.8402636604,-1.008262753,0.1022274047,-0.09366566688
-0.05723462987,-0.06688683984,-0.7602236898,-1.049394369,-0.03580740094,-0.0506881699
-0.3168652247,0.146126673,-0.6563562689,-1.081058383,-0.1578358412,-0.01132132113
-0.5565221221,0.2477332363,-0.6685230921,-1.088307023,-0.2340117246,0.03540779278
-0.7426257085,0.3177741563,-0.7701984828,-1.080570817,-0.2848272324,0.0930646956
-0.9007178369,0.4087126106,-0.8747172072,-1.073362947,-0.325645119,0.137065649
-1.131201832,0.5674053352,-1.012867056,-1.064775825,-0.3317741156,0.158627674
-1.242701136,0.7530769599,-1.135965028,-1.047708869,-0.3025698364,0.1639366746
-1.151874033,0.8473179629,-1.228047026,-1.014788508,-0.2522502244,0.1597403288
-1.087362106,0.9176765705,-1.294457481,-0.9515545368,-0.1679482609,0.1594093442
-0.9573942483,0.9441951595,-1.316014794,-0.8688444495,-0.07222998887,0.1627337784
-0.6525567305,0.9416115728,-1.241682899,-0.775536716,0.009526685812,0.1689074039
-0.2397580197,0.9022329176,-1.04598877,-0.6954099536,0.04317412898,0.1655776501
0.1321387719,0.8641244285,-0.7764536708,-0.6432258487,0.01753526554,0.1460650265
0.4517313758,0.7612430229,-0.4470503053,-0.6207508445,-0.04751457646,0.117325522
0.7682441339,0.5604346194,-0.1429545458,-0.6266431212,-0.1590029895,0.07090741396
0.9746493345,0.3131558488,0.1109640281,-0.6440154314,-0.3314970136,0.01408168022
1.026365493,0.04796703531,0.3060110916,-0.6693176031,-0.5548939705,-0.05072374642
0.9413812712,-0.1996726775,0.4196404665,-0.7153993249,-0.7602652311,-0.09488721937
0.7942647103,-0.3828858031,0.4955348617,-0.7817046046,-0.9123334289,-0.1012661383
0.5292699581,-0.5218573437,0.430901573,-0.8705439568,-0.9496067762,-0.05472686142
0.186346163,-0.5036319512,0.2065457782,-0.9866334796,-0.9032962918,0.04818292707
-0.1752250495,-0.3298825272,-0.1687752158,-1.121888518,-0.7727798223,0.1550249606
-0.4732680849,-0.101626437,-0.4989501135,-1.248809814,-0.5953629613,0.2306550294
-0.6073135672,-0.03759674021,-0.6500185903,-1.342327237,-0.4116046131,0.2618824542
-0.6516811167,-0.1451359084,-0.6562981821,-1.391708732,-0.2772603035,0.2592590749
-0.6875409501,-0.2617091547,-0.509612633,-1.406540155,-0.1993095726,0.2288244665
-0.6575292582,-0.2882210218,-0.2583499074,-1.402383447,-0.1714787781,0.1743354052
-0.4974129306,-0.2311789919,0.01367423202,-1.389485002,-0.193322286,0.1142518297
-0.3692150052,-0.1757686548,0.2788374362,-1.369091511,-0.2378230095,0.07001265883
-0.2296235791,-0.1538695422,0.5358140459,-1.331985116,-0.2844296694,0.05145841092
-0.1293704763,-0.1555053267,0.7315580788,-1.298012018,-0.3605339229,0.05028216913
-0.2157446914,-0.1407505329,0.7891136842,-1.282207727,-0.4472424686,0.07761472464
-0.4193529548,-0.06450140601,0.7653985352,-1.280335307,-0.5364067554,0.1318904757
-0.6342611954,-0.02737520592,0.678291768,-1.289046049,-0.5876105428,0.2012298703
-0.7620148841,0.03278232566,0.6374906788,-1.309928894,-0.6486845016,0.264950335
-0.8870166438,0.1259320263,0.4876137499,-1.349951982,-0.7194598913,0.3038955927
-1.098692478,0.2076888107,0.3465251075,-1.394868493,-0.7358105779,0.3207272291
-1.079552309,0.2478960257,0.1870183997,-1.436386704,-0.6953470707,0.3165641725
-0.9124684804,0.290034501,-0.05865099948,-1.463210821,-0.6322936416,0.2897764146
-0.8181465212,0.3689408644,-0.2776403719,-1.472827315,-0.5488139391,0.2469285429
-0.6870622267,0.4386939073,-0.4483769508,-1.456392765,-0.4678560793,0.1897352785
-0.5432891311,0.4514207024,-0.565371199,-1.425410509,-0.4241517186,0.1154956669
-0.4435895704,0.4353600867,-0.6260190714,-1.388323069,-0.392678231,0.01954446919
-0.2818020947,0.4110641421,-0.6588499854,-1.360627532,-0.3450742364,-0.07082431018
-0.05556231275,0.3776005562,-0.6702039578,-1.358364105,-0.2923844755,-0.1443719417
0.1651198351,0.3825277835,-0.6463014695,-1.389148712,-0.2651030421,-0.1936244369
0.1763648672,0.4298384007,-0.5618388236,-1.434450269,-0.2649210989,-0.2126019895
0.1059948614,0.5005497673,-0.4662798334,-1.465559721,-0.2787184119,-0.1867429614
0.03339958078,0.4762500233,-0.3481970228,-1.48460722,-0.3019522429,-0.1263385266
0.009286883783,0.3728244279,-0.1899327162,-1.491139412,-0.342463702,-0.04838326946
-0.02029460001,0.2315855269,-0.009590908231,-1.505296826,-0.4461805224,0.02648208104
-0.199179341,0.0958519453,0.1414244502,-1.523452759,-0.5910474658,0.08793399483
-0.436555434,0.02034896055,0.2195504404,-1.541977406,-0.7404015064,0.1624661237
-0.6719400609,-0.02303191602,0.1678968255,-1.558299303,-0.8214817047,0.2471447885
-0.7165151157,0.02628945651,0.04866751173,-1.575068712,-0.8268902302,0.3424166143
-0.6210615221,0.127546768,-0.1578806776,-1.59086287,-0.7796584964,0.4322958887
-0.57427639,0.2541390117,-0.3730122055,-1.607975483,-0.7207731605,0.4875252545
-0.5365571925,0.365705828,-0.582873538,-1.622711897,-0.6545352936,0.5085056424
-0.4858972648,0.4305351508,-0.7253970719,-1.62998414,-0.55813694,0.4943667352
-0.2273503735,0.4487766177,-0.7698483542,-1.643830895,-0.4604937434,0.4479949772
0.0404419005,0.4400377232,-0.7322606741,-1.650194287,-0.3773013651,0.3913834691
0.1930132196,0.40227644,-0.6734618636,-1.643033862,-0.339184612,0.3217772245
0.149644618,0.3480015368,-0.5920411793,-1.635101795,-0.3324924111,0.2536185682
0.1264730013,0.2932324202,-0.4890292792,-1.62773037,-0.3636447191,0.1884786934
0.07178980945,0.360712842,-0.3451137064,-1.627255559,-0.425550878,0.1259032041
-0.08628945944,0.4920557874,-0.1562630132,-1.633486748,-0.479829818,0.07777962834
-0.1292956575,0.6311614758,-0.04656568061,-1.640314102,-0.5115668178,0.0493074283
-0.1136515136,0.7300070499,-0.01461933085,-1.646391153,-0.503667891,0.01389031298
-0.09669511812,0.7493880422,-0.049280456,-1.632724524,-0.4404418468,-0.02608987316
-0.006551905861,0.6636436495,-0.1759647985,-1.615098953,-0.3210233152,-0.06529959291
0.1018494321,0.6025894613,-0.3055383596,-1.598109841,-0.1793900728,-0.1063081548
0.2230991458,0.5967831131,-0.4149898277,-1.596277595,-0.0620559752,-0.1488715857
0.2570896782,0.6589744886,-0.4390377889,-1.59628129,0.008477934636,-0.1814011037
0.2250304061,0.7082876778,-0.3478529951,-1.590656161,0.03671276942,-0.183028847
0.3018406741,0.740143244,-0.2000122117,-1.58046639,0.01086349413,-0.1631651372
0.4021054674,0.7687716649,-0.01968019444,-1.564656019,-0.05940267816,-0.1234142557
0.4907645786,0.7723837179,0.1841414925,-1.53932631,-0.1717371792,-0.08572757244
0.5567617761,0.7263400519,0.4292332744,-1.516272068,-0.3165945113,-0.05928184837
0.5411053573,0.6291168182,0.6516765136,-1.500778437,-0.4587186277,-0.05202137306
0.5341968931,0.4804255554,0.768379743,-1.484948277,-0.5561927557,-0.04683566839
0.5556915165,0.2976370849,0.7637558825,-1.473356962,-0.5923627615,-0.05108767748
0.5868424416,0.1816495296,0.6408617627,-1.47986567,-0.5800501704,-0.0605679974
0.5458201108,0.1565256097,0.4688569904,-1.488890529,-0.561111033,-0.07566448301
0.371278952,0.1649175905,0.278323751,-1.50922513,-0.5105674267,-0.06360569596
0.0528881251,0.1587427012,0.05563442813,-1.539864063,-0.4213513732,-0.02862428688
-0.2024842278,0.1518836291,-0.1329704005,-1.57161808,-0.330830276,0.02952849865
-0.3719821318,0.2441688218,-0.1038375372,-1.597053051,-0.2625938654,0.1047677621
-0.5302917023,0.4151119562,0.06573927724,-1.594028234,-0.2244805843,0.1697419733
-0.5193552978,0.5657490924,0.105101785,-1.565381885,-0.211574927,0.2110820413
-0.4368827663,0.6155053492,0.1756160216,-1.505386114,-0.221971646,0.2235935628
-0.2610720259,0.5453937021,0.2819670029,-1.437858701,-0.2794983983,0.2088276446
-0.1209972002,0.3793839325,0.4520722252,-1.37823689,-0.3920350671,0.1788875908
-0.08159516415,0.1455892052,0.7047866109,-1.336398363,-0.5401927233,0.146189481
-0.01232522857,-0.05450725074,0.8808627973,-1.314927936,-0.6534087062,0.1241283938
0.03372457495,-0.2025777513,0.8823142382,-1.316114306,-0.7210999727,0.1208890751
-0.05739478887,-0.2458440616,0.6745140761,-1.338713288,-0.7167063355,0.1363191605
-0.09160860864,-0.106230716,0.3731777713,-1.370486617,-0.6764417291,0.1848044246
-0.1272825641,0.06888619696,0.09392908748,-1.407299995,-0.6145189404,0.2427316308
-0.1240384676,0.2546495916,-0.005756883026,-1.442920089,-0.5351595879,0.2778732181
-0.1058475619,0.3283347133,0.0190062407,-1.468788385,-0.4808821976,0.2760817111
-0.1207967092,0.2639709622,0.105257414,-1.466365576,-0.4686502516,0.2360004783
-0.1414297474,0.1119979012,0.2001171333,-1.447259784,-0.498839587,0.1617550105
-0.1686316426,-0.0767366182,0.2486711017,-1.42183435,-0.5697353482,0.07015728951
-0.258379718,-0.2126353272,0.2494752577,-1.404820442,-0.6318570375,-0.01892917976
-0.3382406057,-0.2059571646,0.2289743215,-1.39975369,-0.6419146657,-0.07832775265
-0.35150633,-0.08014028916,0.1197004749,-1.405981779,-0.6041619182,-0.0983704403
-0.3298556392,0.1138584344,-0.02149433119,-1.410288692,-0.5521716475,-0.07348403335
-0.3238292185,0.3314893779,-0.1296353378,-1.40899384,-0.4953552485,-0.02086156607
-0.2806716293,0.5047258839,-0.1954247743,-1.390150905,-0.4426909983,0.05246710032
-0.1917097358,0.5519836019,-0.2430775195,-1.354547381,-0.4002481997,0.1247887015
-0.03668810093,0.4915151047,-0.2463376903,-1.308607817,-0.3886503875,0.1871650517
0.08956979629,0.3698983113,-0.1178415857,-1.271384597,-0.4043574631,0.2436775863
0.1280173081,0.2125368353,0.1131743611,-1.243109941,-0.4251139164,0.3070521653
0.1822264527,0.1155564705,0.318718561,-1.229184747,-0.4813511074,0.3527389467
0.1821972266,0.08252484621,0.434985189,-1.22527504,-0.5558680296,0.3817387819
0.129776719,0.1012049968,0.4857694006,-1.221287966,-0.636675477,0.3871854842
0.09394377359,0.06856324862,0.4211797318,-1.215159416,-0.6909095049,0.3772005141
0.08642389948,-0.008841478103,0.3002713059,-1.226603866,-0.7178120017,0.346116364
0.1002671314,-0.04638415003,0.1861868077,-1.259970665,-0.7185117602,0.2839403749
0.08904606467,-0.06287088219,0.001709288136,-1.311498284,-0.7094621062,0.195009172
-0.01172375554,-0.05863485206,-0.2446744698,-1.376587749,-0.6913869977,0.09213654697
-0.1704249557,0.00979015713,-0.4163591067,-1.449577808,-0.6664275527,-0.006285899319
-0.3311234672,0.1059638817,-0.5552739852,-1.519918919,-0.6317238212,-0.09480924904
-0.4672083464,0.2676940743,-0.587145297,-1.571871281,-0.5675797462,-0.1639856547
-0.4777992985,0.4579977427,-0.5814487293,-1.602245808,-0.4927861989,-0.2020115852
-0.5100917949,0.6364645506,-0.5382610738,-1.603014588,-0.4066846073,-0.199111402
-0.5650257466,0.8219149338,-0.4170221007,-1.57526958,-0.3465698659,-0.1599152237
-0.6397159536,1.009539154,-0.2414345746,-1.530633211,-0.3458598852,-0.09436390549
-0.7494932562,1.243209378,-0.04341437698,-1.469467878,-0.3828827739,-0.02346770279
-0.789982503,1.425099146,0.06531469515,-1.401302934,-0.4215976894,0.04742085189
-0.7087053187,1.538760012,0.09500405976,-1.328978777,-0.456217587,0.1136027575
-0.5659539673,1.542849035,0.08780249435,-1.261453509,-0.4880501032,0.1667200476
-0.4404413355,1.490230667,0.09681604109,-1.209966183,-0.5357508659,0.1923306584
-0.3885732011,1.42030782,0.1089879423,-1.169389963,-0.5818376541,0.1956995577
-0.2884527847,1.311672966,0.1016007911,-1.142255545,-0.636238575,0.1865659803
-0.2651940742,1.213405191,0.02457253306,-1.120630145,-0.6779047847,0.1716261804
-0.2243377477,1.152532205,-0.1016572706,-1.114142179,-0.714892447,0.1450060308
-0.1988999396,1.141850067,-0.1929431501,-1.121232271,-0.7327561378,0.1175781339
-0.1784597936,1.131022676,-0.2830000906,-1.117393494,-0.7169095874,0.09677293152
-0.08909691808,1.11474228,-0.4050957353,-1.123191237,-0.687508285,0.07764398307
0.007214753684,1.132531912,-0.5433720236,-1.139145017,-0.6851093769,0.05768771097
-0.06231003344,1.191857961,-0.6780253722,-1.170436382,-0.7135287523,0.02959162742
-0.1886374888,1.211038462,-0.782340756,-1.218185306,-0.7546752095,-0.01082358044
-0.3018073563,1.163984742,-0.8489796125,-1.258185983,-0.7609884739,-0.06206972152
-0.2531429864,1.083156179,-0.8571734403,-1.293551564,-0.7485218048,-0.1020025089
-0.215132697,1.05047819,-0.8531815942,-1.327638626,-0.7334342003,-0.1332325935
-0.2962082212,1.119267649,-0.8772006946,-1.360870838,-0.7084240913,-0.1597680449
-0.3660369597,1.229511108,-0.8909836477,-1.38179481,-0.648547709,-0.1679721922
-0.2890671172,1.332217449,-0.8693157866,-1.377968192,-0.5818068385,-0.1636080593
-0.1922182699,1.356949447,-0.8438936144,-1.35597074,-0.5375667214,-0.1521535367
-0.1509679756,1.336991531,-0.759027758,-1.316947579,-0.557774663,-0.1437313259
-0.273039527,1.318826929,-0.5653356162,-1.26102829,-0.6153101325,-0.1171180904
-0.3524333817,1.264306527,-0.3837004075,-1.205914259,-0.6832373142,-0.0870763883
-0.393362189,1.204104571,-0.3336764396,-1.162485361,-0.7168200016,-0.06436255574
-0.3891156374,1.158578792,-0.3934546896,-1.146968484,-0.7305212617,-0.03069650009
-0.386005981,1.142582766,-0.4792364552,-1.161082149,-0.7400881648,0.006127563305
-0.4439204098,1.169611642,-0.4922490085,-1.193758726,-0.7457880378,0.0382178165
-0.5114297655,1.159610765,-0.483201596,-1.233950853,-0.7462514043,0.05910392478
-0.5395066899,1.135151447,-0.4584020127,-1.263031125,-0.7341755033,0.04394967854
-0.5054699803,1.116243625,-0.4282289562,-1.26967597,-0.7151213884,-0.001140302513
-0.461762356,1.04727238,-0.4024142411,-1.249766588,-0.6848476529,-0.05954773724
-0.4646358656,0.9702671739,-0.3868975595,-1.218223095,-0.6453953385,-0.131652832
-0.560231498,0.9151599115,-0.4248539634,-1.178496242,-0.5709038973,-0.1888950765
-0.5489373661,0.8984761954,-0.4968569041,-1.142346501,-0.4882796407,-0.2122270316
-0.5415566082,0.9173927851,-0.5621210381,-1.11770165,-0.4285895228,-0.2229207456
-0.5905179152,0.9346960943,-0.566145654,-1.107487082,-0.402810663,-0.2139645368
-0.5849222872,0.8977987346,-0.5182618765,-1.11695838,-0.3937335312,-0.1977100819
-0.5360305382,0.8316898934,-0.3946716641,-1.130371332,-0.3995048702,-0.1777289212
-0.4384352564,0.7535241191,-0.2703191256,-1.150379062,-0.4154188037,-0.1691273004
-0.3584977963,0.6871905293,-0.1780563274,-1.154359102,-0.4473455846,-0.1591739953
-0.3121685914,0.6314040524,-0.07746957212,-1.148877859,-0.4787572026,-0.1482222676
-0.315845234,0.6048357789,0.05208714745,-1.127494216,-0.5079017878,-0.1281313896
-0.3015536738,0.6058151453,0.1372885925,-1.09561801,-0.5300424695,-0.09199453145
-0.3139309249,0.6194084942,0.1065481844,-1.064911008,-0.5479732752,-0.06366568804
-0.3408849828,0.6184416949,0.05802461121,-1.038720965,-0.5296133161,-0.04808982834
-0.2564262459,0.5477224373,0.04561338486,-1.006112695,-0.4376207888,-0.02954490297
-0.1017991633,0.4025847753,0.003884951675,-0.9714844823,-0.3007918596,-0.01166848838
0.07142623683,0.2445703884,-0.05471358696,-0.9492473602,-0.1974617392,-0.001253930619
0.09241817146,0.2154889631,-0.07944821525,-0.9405921698,-0.1535780877,-0.002180781215
0.09630758011,0.1903749801,-0.06518387184,-0.9404563308,-0.1594458371,0.000191296218
0.1261538523,0.1281120007,-0.0400094639,-0.9412764311,-0.2017376721,0.008983314037
0.1489963832,0.02176788743,-0.002321392152,-0.9428812265,-0.2735103965,0.03624023497
0.1231494098,-0.0741945325,0.01379595871,-0.9462741017,-0.3558585346,0.06484983116
0.02580430334,-0.1172179739,0.00182487734,-0.9535309076,-0.3860744834,0.09157438576
0.004286883539,-0.1037470825,-0.06980064492,-0.962601006,-0.3621606529,0.1139579639
0.07649521066,-0.0482417606,-0.2215670409,-0.9766709805,-0.3151510656,0.1106207594
0.1171633211,0.09250584974,-0.3249685978,-0.9881272316,-0.2707941532,0.0750811249
0.1313105044,0.1891749566,-0.3315359205,-0.9868798256,-0.2494063079,0.00233847904
0.07397767488,0.1886477179,-0.2392790405,-0.9794828296,-0.2226153165,-0.09922428429
0.04271569065,0.1445890882,-0.1013741428,-0.9622625709,-0.181486249,-0.2072791159
0.0440922397,0.1128989417,0.05339892417,-0.9338625669,-0.169596374,-0.3023793399
-0.1152355679,0.1642906908,0.1999830221,-0.8913396597,-0.1871093214,-0.3659463227
-0.4594844742,0.3002554507,0.3638591772,-0.814068079,-0.2003543377,-0.3679476976
-0.6478378853,0.442369381,0.409732857,-0.7197903395,-0.19301413,-0.3101754785
-0.6896539968,0.5640811592,0.3849311183,-0.6161459088,-0.1821142286,-0.2130419016
-0.7330190912,0.6718041596,0.4172004529,-0.5217099786,-0.1755444854,-0.09304919094
-0.7138847672,0.7110816925,0.4818269101,-0.4549522996,-0.184298411,0.02306944132
-0.6676192751,0.6801949713,0.5872571233,-0.4081121087,-0.1952991188,0.1090605184
-0.5726327145,0.6032584466,0.6995750137,-0.3793599308,-0.178948611,0.1686056256
-0.3512818736,0.4303054337,0.7566234003,-0.3621103764,-0.1306489855,0.1873851717
-0.1351934833,0.243744459,0.790825968,-0.3515385389,-0.07717239112,0.1747387648
-0.004240121788,0.103160807,0.8193689026,-0.3442942202,-0.04776975885,0.1289859265
0.04754033433,0.01150660566,0.851274007,-0.3352099359,-0.03200936317,0.051982712
0.09286299261,-0.04471212517,0.8642514159,-0.3081935048,-0.03778416291,-0.02050160617
0.1389513746,-0.104790454,0.9018179071,-0.2770087421,-0.05725792795,-0.06990411133
0.1833411359,-0.1477612885,0.9545416354,-0.2482450157,-0.1015148684,-0.1066669226
0.1529752237,-0.1500862243,0.9610248599,-0.2262843996,-0.1401070207,-0.1148499474
0.07067454168,-0.1530310456,0.9536351881,-0.2292727381,-0.1553416401,-0.1100783646
0.08358487666,-0.1494052563,0.9828994957,-0.2490264326,-0.1426315904,-0.1029066965
0.007598784566,-0.1157145836,0.9630280895,-0.2831162214,-0.0693789646,-0.1147756055
0.01702829169,-0.05660743788,0.8952776916,-0.3075984716,0.05526317284,-0.1459959149
-0.005001169288,-0.0484101029,0.7529436158,-0.3031411171,0.1830549538,-0.1823928058
-0.06217325532,-0.05290741432,0.6360514398,-0.2776961625,0.291028738,-0.2305677533
-0.1152881749,-0.04296791185,0.6768423729,-0.2325342745,0.3438898325,-0.2679249644
-0.1884668084,-0.06726999394,0.8464177991,-0.1689882874,0.4125512838,-0.2635108829
-0.1731850681,-0.03999561804,1.032884301,-0.09503284842,0.4492725432,-0.2196805775
-0.1391197169,0.03897825769,1.077456798,-0.03653026745,0.4824126065,-0.1537656188
-0.2793026791,0.1133195052,1.013840285,0.02229895815,0.4988392591,-0.0428247191
-0.293119023,0.1094599072,0.7965825588,0.03824390471,0.5788453817,0.1763348579
0.02752513579,0.2345888003,0.8268063591,-0.05093630403,0.4348254204,0.501658082
1.282128891,0.8627733061,1.806428514,-0.1124695316,0.0822930634,0.6376351714
-0.5185907431,0.3248179373,1.827956601,-0.1422668397,-0.1957262903,0.5707967281
-0.3458919973,0.05860591823,1.344671418,-0.1131670401,-0.265542239,0.4194688201
0.009345920494,-0.3296683,0.9439824666,-0.02008157596,-0.2033915073,0.2458269894
0.5536860219,-0.7415539876,0.7521604296,0.09883264452,-0.1450794339,0.03939814866
0.4437374545,-1.075142091,0.5521856273,0.1802305579,-0.08692398667,-0.193305403
0.2738327232,-1.148708555,0.3399371074,0.1904302239,0.02799150907,-0.3822734356
0.4904992056,-0.9928279653,0.3277208192,0.140597418,0.1979696304,-0.4673593044
0.930747649,-0.7393865804,0.3318263548,0.06413216144,0.227629602,-0.454929471
0.6843880391,-0.5205421695,0.3310272403,-0.01794246957,0.06194901466,-0.4040055573
-0.03375438556,-0.3848331378,0.5146265157,-0.0874497816,-0.174190253,-0.3165043294
-0.6189508135,-0.3918842254,0.837819336,-0.108608596,-0.3025125563,-0.2063608021
-0.6902753435,-0.5131535205,1.021353803,-0.06960745901,-0.3176871538,-0.07735479623
-0.5947013384,-0.5671063522,0.8227668744,-0.009285256267,-0.2669853568,0.03939791769
-0.606988573,-0.4621358655,0.5681804112,0.05202585459,-0.1660704315,0.1299534589
-0.5847106903,-0.2698696648,0.3922328196,0.09741543978,-0.02092389576,0.1754743457
-0.4562105671,-0.1626198349,0.1865736516,0.1364546865,0.1528735459,0.16554524
-0.2655962253,-0.2323947974,0.06089885147,0.1717783213,0.3104945719,0.1161111146
-0.09462649516,-0.4401379687,0.1405915795,0.2081046849,0.4066476822,0.04283003882
-0.05105506445,-0.7034238712,0.3894758856,0.247931987,0.4571875632,-0.03246790916
0.01651741956,-0.9671373515,0.6550219516,0.2817001641,0.474761337,-0.1005447432
0.114784317,-1.175957797,0.9119959675,0.2811012268,0.4531095624,-0.1602261811
0.1785457183,-1.290176881,1.123860822,0.2553018034,0.4043178856,-0.2196654528
0.1937958944,-1.323563018,1.289037063,0.2118723094,0.3355526626,-0.2613913417
0.2053781957,-1.318121411,1.387557205,0.1680633873,0.252274394,-0.286795944
0.1489478679,-1.280562373,1.429258312,0.1401958019,0.1862634271,-0.2688997686
0.09914777197,-1.21811936,1.430746943,0.1306237131,0.1492349505,-0.2063313574
0.06292787308,-1.104450603,1.40526778,0.1229732484,0.1422790438,-0.1160342246
0.06533376518,-0.8949310702,1.353922208,0.1240433231,0.1687893271,-0.02744228579
0.1176379529,-0.6446592553,1.24760849,0.1393168122,0.2199403942,0.04754780605
0.2295131045,-0.4366723384,1.085627537,0.1766594797,0.2955427766,0.1071592867
0.4011035969,-0.3635714463,0.9294915114,0.2219284177,0.3668683469,0.1404988766
0.5211638085,-0.3521156941,0.8336785829,0.2747199833,0.3979675472,0.1544406265
0.5086825126,-0.3673609018,0.8680425518,0.3164168298,0.3881974816,0.1468615383
0.4963865101,-0.3847188638,0.9079374129,0.3527737856,0.3460717201,0.1308864653
0.4887941553,-0.3700219377,0.8760735172,0.3966682851,0.2870099843,0.1170657128
0.5477922877,-0.3938137321,0.764728527,0.431285888,0.2031091452,0.09745512158
0.5625672475,-0.458790939,0.6399940399,0.4624320865,0.1029753461,0.06922615319
0.5883025773,-0.5337511951,0.5227141067,0.4802519083,-0.01299357414,0.04770120606
0.5890314761,-0.5854419271,0.4399408387,0.4744339585,-0.1291926205,0.03961824626
0.5215460858,-0.5861106202,0.3697668669,0.4435222745,-0.2207189351,0.03915833682
0.504233132,-0.5473395755,0.3060408657,0.3979465365,-0.2689719498,0.03631407768
0.5021785375,-0.4570709833,0.1973355398,0.3560491502,-0.2435582131,0.03240896389
0.5657815334,-0.4333165982,0.03380637148,0.3423631787,-0.1737716645,0.04260647297
0.5908002393,-0.5053413855,-0.2060879149,0.3326554894,-0.1244190037,0.05018390343
0.4698258354,-0.5479843031,-0.3556812411,0.3188352883,-0.1132867262,0.04774684459
0.303172215,-0.5528770436,-0.3801555745,0.2897198796,-0.1049014553,0.02844398655
0.2631120072,-0.5456321871,-0.398260044,0.2449255139,-0.09648852795,-0.0211672429
0.2875847697,-0.5385074497,-0.4144547344,0.2007463723,-0.0960656777,-0.08995370567
0.2522621119,-0.5409276626,-0.447473901,0.1797574759,-0.1091162339,-0.1461535841
0.1688888322,-0.5516127228,-0.4849360916,0.1792942882,-0.1279131174,-0.1671421677
0.05063420869,-0.5421513592,-0.5467384678,0.1928966492,-0.1333092153,-0.1494065821
-0.05683189429,-0.4451590117,-0.6109595225,0.2020590454,-0.11642351,-0.09251153469
-0.08938917902,-0.2977683101,-0.707256362,0.2014033794,-0.06812548637,-0.01172747649
-0.02250058562,-0.1339201024,-0.7890847504,0.1912822872,0.02003933303,0.08368305117
0.1631605177,-0.0002156885773,-0.8178991223,0.1651087403,0.1041840389,0.1676807404
0.3495961125,0.06085603524,-0.7664930524,0.1379404813,0.161814943,0.2148301303
0.4920598791,0.0112152215,-0.6671167324,0.118008852,0.1809758544,0.2092665136
0.5909907934,-0.1640127506,-0.5574878254,0.1115005463,0.1641089618,0.1656676978
0.6419803914,-0.368855232,-0.4702320051,0.1117125377,0.1186336204,0.1018985808
0.7067705513,-0.4909504565,-0.3602884426,0.1111853123,0.04036316276,0.02187439799
0.7206453474,-0.5224906732,-0.2668339138,0.09899762273,-0.08769919723,-0.06699954718
0.600953969,-0.4991492528,-0.1549461585,0.08818051219,-0.2419689745,-0.1647761911
0.3424240289,-0.462498269,-0.1130600871,0.08221396059,-0.3581331372,-0.240520224
0.1442792916,-0.4473968538,-0.2052125933,0.07361517102,-0.4067062736,-0.2990916371
-0.004506663769,-0.374990666,-0.4198371216,0.05752541497,-0.4013314843,-0.3452301025
-0.2533341251,-0.2658537072,-0.6831847277,0.02507794276,-0.360099256,-0.397759378
-0.5222112717,-0.1668152408,-0.9000059623,-0.004002177157,-0.2683725357,-0.4403188229
-0.6931903542,-0.118268652,-1.034832293,-0.007951769978,-0.1280742437,-0.4407260418
-0.7046025596,-0.1413344703,-1.090085978,0.006739025936,0.01761478744,-0.4204239547
-0.6830208424,-0.1151563652,-1.052474332,0.04289986938,0.1241642907,-0.3729622364
-0.5796469771,-0.06860621098,-0.9377166842,0.09755911678,0.192632556,-0.3075486124
-0.4038859211,-0.06043108783,-0.7815564738,0.1603603661,0.2281447202,-0.2168554366
-0.133649761,-0.1371916714,-0.6016761458,0.222312957,0.209668234,-0.1198564544
0.08713058644,-0.2767155852,-0.480744339,0.2591972649,0.1369697303,-0.0309816394
0.2348626488,-0.4153581861,-0.4025969772,0.2648495436,0.03422124684,0.04656374827
0.3865250364,-0.6012598201,-0.3646992448,0.2387564033,-0.06223348901,0.1044985205
0.5359264933,-0.7766897445,-0.3898743103,0.1833197773,-0.1587754637,0.13178128
0.6220446879,-0.9030332742,-0.4578702804,0.09792378545,-0.2521778345,0.1233627573
0.6433551869,-0.9882779008,-0.5544623035,0.005052169785,-0.3085342944,0.09690425545
0.6867056684,-1.08231359,-0.6323425023,-0.07472406328,-0.3217040598,0.07253601402
0.7200427053,-1.154424887,-0.7540734236,-0.1545019746,-0.304661423,0.05237802118
0.6864777048,-1.150452768,-0.8686709859,-0.2315600514,-0.2720469236,0.02447790466
0.5515870038,-1.056851232,-0.916840485,-0.3128101826,-0.2500359118,-0.01107423007
0.3706389005,-0.932272082,-0.9300967838,-0.3837127984,-0.2257301211,-0.06979023665
0.1895107645,-0.8029837311,-0.9165558228,-0.4298848212,-0.2096515447,-0.1247144639
0.03950841905,-0.715751584,-0.8814488536,-0.4454984367,-0.1902623177,-0.1570988148
-0.123300801,-0.6669054277,-0.862319571,-0.4346700311,-0.1762317121,-0.1579928398
-0.3224421481,-0.6078602413,-0.8267696803,-0.4187048078,-0.1663230509,-0.1396964192
-0.5072171162,-0.5088170988,-0.7753795387,-0.3944516778,-0.1481794715,-0.1013501063
-0.5519950001,-0.3804419171,-0.6989454837,-0.3599585891,-0.1204497218,-0.02625699528
-0.4967290399,-0.3221159849,-0.6366479444,-0.3145863116,-0.08555884659,0.09413626045
-0.3975426895,-0.2995563625,-0.6069035982,-0.2843117118,-0.06272523105,0.2073395848
-0.2853776151,-0.2413558103,-0.6037692457,-0.2693759203,-0.03057714924,0.2804015279
-0.1208206746,-0.2452911039,-0.5493051765,-0.2565884292,-0.004458799958,0.334189862
0.04865209497,-0.4008548828,-0.4303845999,-0.25737831,0.01696020551,0.3680732548
0.1224427228,-0.6057838734,-0.34644448,-0.2738873065,0.04570590332,0.3614465892
0.2711135274,-0.7435837399,-0.3341771922,-0.2989021242,0.07166692615,0.3227841258
0.4049228629,-0.7947063166,-0.373478727,-0.323530376,0.1089252979,0.2744392455
0.5029489374,-0.8841343663,-0.438225961,-0.344265461,0.1289842278,0.2380274385
0.5940653786,-0.990978538,-0.4666654352,-0.3693404794,0.1274792701,0.2065020055
0.5987725334,-1.053470066,-0.434786963,-0.4005095661,0.07189165056,0.1854129583
0.5113222134,-1.076867892,-0.3360510963,-0.4411534071,-0.04544411972,0.174376145
0.2473895375,-1.030451009,-0.2769709847,-0.4920834303,-0.1939254701,0.1809496284
-0.03629062604,-0.9433099011,-0.3041246568,-0.5501320958,-0.3316513002,0.2238409668
-0.3326502384,-0.8301777352,-0.4227497576,-0.6022847891,-0.2597587407,0.3115639091
-0.1408013864,-0.7119052838,-0.5107658582,-0.6432138085,-0.002478982089,0.4458049834
0.4708808975,-0.601033464,-0.6025832508,-0.6595802307,0.2130399942,0.563644588
0.3766431094,-0.4760197217,-0.634484775,-0.6626474261,0.325566262,0.6304927468
-0.05276946716,-0.3495601644,-0.5563212293,-0.6490581036,0.3511363566,0.6077525616
-0.2654179461,-0.2177633377,-0.4822823988,-0.6054936051,0.3837677836,0.5269867778
-0.1479261237,-0.2274152554,-0.473772235,-0.5216946006,0.3761974871,0.4338544607
-0.1792687719,-0.5289493478,-0.4366900932,-0.4123933315,0.3737920225,0.3326973915
-0.2270990291,-0.7418082546,-0.313366642,-0.2980851233,0.3825945854,0.2340304703
-0.1200017594,-0.8714870662,-0.2046342454,-0.1916887015,0.3834277093,0.1178684086
-0.07993103033,-0.8718965238,-0.1346844378,-0.09697017819,0.3876195252,0.0003987706732
-0.1662771884,-0.8614820973,-0.1137734595,-0.01266226918,0.4478092492,-0.07288613915
-0.07754793458,-0.9220742209,-0.07993512198,0.05432928354,0.5467760563,-0.1095392257
0.06781564512,-0.9635475103,0.01718008472,0.100513041,0.6096070409,-0.1302423477
-0.01085398697,-0.9455883675,0.1335552146,0.1218702644,0.5285148621,-0.146494031
-0.4316600632,-0.8840861433,0.2573905974,0.1247890592,0.2565054893,-0.1607338339
-1.155033374,-0.7590063499,0.3690987219,0.09046597779,-0.1483599544,-0.1900680214
-1.965982677,-0.4960077399,0.4110780611,0.02303454839,-0.5541713238,-0.2076621205
-2.516184949,-0.1699047312,0.2721643516,-0.06539811194,-0.8454498053,-0.1888484806
-2.822011478,0.1427536895,-0.1411417608,-0.154747501,-0.9314083457,-0.1166541278
-2.862393172,0.4130933099,-0.6875401464,-0.2421961278,-0.7719486356,0.03955998272
-2.57627906,0.6638543696,-1.219232729,-0.3323343098,-0.424189508,0.2602702081
-2.028063578,1.02633276,-1.537384778,-0.3983306289,-0.01312020607,0.5115849972
-1.501604001,1.346675305,-1.624850003,-0.4646290839,0.2689024806,0.7153004408
-1.146644901,1.676709224,-1.421333072,-0.5394409895,0.3806138337,0.7523282766
-0.8726637088,1.967490744,-1.066140747,-0.5686253309,0.3932152689,0.6544759274
-0.4491910437,1.940212861,-0.7511545405,-0.5356194377,0.3251046538,0.4764111638
-0.06319733767,1.634694375,-0.5815465271,-0.4415799677,0.2294533253,0.2353789806
0.2467664371,1.152834695,-0.4956568807,-0.2876058519,0.1133397669,-0.01469637454
0.154344174,0.5420139966,-0.176882644,-0.08015225828,0.06127311662,-0.1835939139
0.1370639534,0.005805763669,0.235406583,0.1504953355,0.08150488138,-0.2554236054
0.3294336144,-0.2340343813,0.09339362889,0.3435423076,0.1661985815,-0.2294087559
0.4212976591,-0.1231155075,-0.4101705543,0.4505830109,0.3082049787,-0.1553731412
0.6752659905,0.2950871082,-1.054805333,0.4662930667,0.4628622234,-0.05047143623
0.8588152162,0.7491530644,-1.56399616,0.4032283425,0.5751053691,0.06130063534
0.9421090009,1.074674766,-1.744397005,0.3057101369,0.6095161438,0.1722313464
0.9264216024,1.16228203,-1.516470585,0.2052042931,0.5806282759,0.2878610194
0.9388993912,1.020666405,-1.047479155,0.1227367967,0.4975167811,0.407336235
1.013754433,0.8428092533,-0.5608242032,0.06172537804,0.30556041,0.5081544518
0.8772060284,0.8016504367,-0.1385246371,0.01259015594,-0.01569961943,0.540631175
0.5428998395,0.8928203616,0.2293527994,-0.03351315856,-0.3841442168,0.5217991471
0.2586959444,0.9013587651,0.4026870301,-0.06410461664,-0.7045301795,0.4758368134
0.2376911503,0.7747256049,0.4064933636,-0.09671396017,-0.9217320085,0.3976368308
0.1777595364,0.6689192518,0.2774900402,-0.1480025798,-1.007081032,0.2915037274
0.1506014804,0.5996960779,0.03304755247,-0.224428907,-1.002032399,0.1498544663
0.0115811322,0.5986503683,-0.1932568922,-0.3264993727,-0.931243062,-0.008577123284
-0.2416226445,0.6126286248,-0.4161627074,-0.4406427145,-0.8005934358,-0.1469182223
-0.4992617733,0.591238923,-0.6753877902,-0.5584133863,-0.6534137726,-0.2417173684
-0.8953829056,0.620518209,-0.9381530298,-0.6806798577,-0.4890573025,-0.295658648
-1.201581775,0.7180582535,-1.023940677,-0.7917535901,-0.2918754816,-0.3195534945
-1.252891691,0.830618757,-0.9599167526,-0.8738774657,-0.09025556594,-0.3123326004
-1.174564004,0.8916206304,-0.7652131687,-0.9126428366,0.0810842514,-0.290345937
-1.019783192,0.8905825196,-0.5346121959,-0.8990186453,0.196761325,-0.2502395511
-0.7858791593,0.7974392487,-0.3881367094,-0.8429331183,0.2509955466,-0.1983610988
-0.4708581011,0.6673927729,-0.2537749276,-0.771202445,0.2469089031,-0.1469570249
-0.2199053182,0.5378773352,-0.07961480398,-0.6937588453,0.2037045062,-0.09161233902
-0.0430266563,0.39755438,0.1142079054,-0.6349413395,0.1735274196,-0.02967013977
0.0893617065,0.2825432684,0.2772993582,-0.6050249338,0.1515939087,0.04545073211
0.09955343016,0.2006795165,0.30468567,-0.6013374925,0.1275223941,0.1188666224
0.1556090794,0.2018912303,0.341710693,-0.6262297034,0.0636997968,0.1625849605
0.2103115604,0.2254448322,0.3887006269,-0.6626183391,-0.03307628632,0.1563361138
0.1640033982,0.2174143782,0.426506699,-0.7010648251,-0.1400807649,0.1076909304
0.1166986262,0.08730711205,0.4174344809,-0.7203740478,-0.242555216,0.03747855499
0.09676526075,-0.1360942316,0.3955515888,-0.7164213657,-0.3373396695,-0.04713217914
0.0431254405,-0.2986523994,0.3659904171,-0.6991558075,-0.4054774642,-0.1256184727
0.01929156045,-0.3691936701,0.2964515832,-0.6750838757,-0.45895046,-0.1823207289
-0.0008206687331,-0.3354468834,0.2135039998,-0.6575448513,-0.4785020649,-0.2209282964
-0.05328793807,-0.2041635592,0.1818097434,-0.6454594135,-0.4792417288,-0.2245307863
-0.09167758222,-0.05704290669,0.1538600438,-0.6337833405,-0.4796870053,-0.194306314
-0.1128583174,0.06724865889,0.09229140327,-0.6251458526,-0.4775162637,-0.145280242
-0.1528080505,0.1487576061,0.03425048025,-0.6207939982,-0.4689171612,-0.08420222998
-0.155879713,0.1749997163,-0.01718267853,-0.6231256127,-0.4609878957,-0.03125023469
-0.1527770708,0.171655082,-0.07747523467,-0.6278002262,-0.4487608075,0.003913078457
-0.1588303795,0.1719429591,-0.08060805281,-0.6348127723,-0.432384789,0.03659346327
-0.05802899512,0.1528811157,-0.1024183911,-0.6463719606,-0.4215305448,0.06764219701
0.05296177486,0.1556716232,-0.09795293616,-0.6653256416,-0.4107792675,0.09140054137
0.180980252,0.2106026523,-0.05029124048,-0.6873888969,-0.4147460461,0.1155109406
0.2534574592,0.2259042664,-0.08208170555,-0.70333004,-0.4338412583,0.1403308362
0.2318967848,0.2230515073,-0.09336838485,-0.7217891812,-0.44650805,0.1686314493
0.3022767274,0.2175657693,0.01990267808,-0.7276943922,-0.4504836798,0.1999459416
0.4451595962,0.2138435339,0.1019582993,-0.7204545736,-0.45748806,0.2034093887
0.5701607714,0.224885737,0.1452655262,-0.7076615095,-0.4662595093,0.1776478887
0.6655868925,0.1923603087,0.2233409187,-0.6877032518,-0.4642709196,0.1405151784
0.7378297064,0.1016822589,0.3149399558,-0.6563526988,-0.4561669827,0.08721139282
0.8234042956,-0.02680500482,0.3479796903,-0.6198902726,-0.4388540387,0.03032227233
0.8887123418,-0.1488584361,0.3603272768,-0.5824323893,-0.4265828133,-0.0156870503
0.9131552936,-0.269881063,0.3537666031,-0.5518034101,-0.4213121533,-0.05091907457
0.8765396734,-0.3700736678,0.3271442614,-0.5357733369,-0.4369076788,-0.07130391151
0.8248632622,-0.4535521615,0.2824727605,-0.5418954492,-0.4773882329,-0.0697164014
0.6986234852,-0.5067427767,0.2313635547,-0.5661644936,-0.5167306662,-0.05294401199
0.5721779564,-0.5673179492,0.1932504624,-0.6182287931,-0.5447306037,-0.03350293636
0.5029331553,-0.5860840244,0.1549015887,-0.6855465174,-0.5425853729,-0.0201233048
0.4285141664,-0.6068132165,0.09877945012,-0.7518658638,-0.5225530863,-0.007264230866
0.4235153352,-0.6270560863,0.07309044372,-0.8039570451,-0.5061730742,0.000518203713
0.4049053272,-0.6211252349,0.09101056968,-0.8481549025,-0.5048313737,0.004626129754
0.3829010007,-0.6051525898,0.1207910832,-0.8782914877,-0.5134342313,-0.007884925231
0.3465127595,-0.5926403142,0.1622105965,-0.9009760618,-0.502199173,-0.03157001361
0.2926864768,-0.6314589974,0.1745920123,-0.912573576,-0.4613889158,-0.04380136356
0.2893149545,-0.7001330129,0.1171739887,-0.9207561016,-0.4128253758,-0.05260284618
0.2759165438,-0.7150789454,0.09411211589,-0.9231843948,-0.3724758327,-0.05852065608
0.2594049694,-0.6704433926,0.1490147957,-0.9198437333,-0.3615424931,-0.05156341568
0.2282680729,-0.6221528244,0.2187916579,-0.9136592746,-0.370716244,-0.04054448009
0.1771820288,-0.6072837566,0.2648885519,-0.9069172144,-0.3819428086,-0.01825301908
0.1736141072,-0.5988257248,0.3023419016,-0.8940646648,-0.3846758902,0.01458116807
0.2181003146,-0.5872118594,0.2855747451,-0.8833009601,-0.3764075637,0.05140363052
0.3192185099,-0.5526213153,0.287319689,-0.8787418008,-0.3537098467,0.08237934858
0.3741302498,-0.5208320923,0.3512782203,-0.8874958754,-0.3383769691,0.08483638614
0.289139598,-0.5166133056,0.4956117264,-0.9038066268,-0.3333301842,0.05651205033
0.05118833545,-0.5170861838,0.6152604346,-0.9286248684,-0.3345403075,-0.007118058391
-0.1015384665,-0.5136141238,0.638584027,-0.9554919004,-0.3997329772,-0.1258596778
-0.3166933753,-0.4462310248,0.5681866948,-1.000079632,-0.5977739096,-0.3302319944
-0.8119429904,-0.291697758,0.4629201842,-1.043609142,-0.9233753085,-0.5984796286
-1.619342492,-0.1657382592,0.3645983052,-1.063366294,-1.206770778,-0.8414222002
-2.421696401,-0.1596627387,0.2106866774,-1.047746301,-1.211117387,-0.9560649395
-2.507880646,-0.2298018583,-0.1636110379,-1.010147572,-0.9436403513,-0.9197090268
-2.17025262,-0.1369385734,-0.6679950496,-0.9612071514,-0.5199177265,-0.7601345181
-1.796235767,0.3082116704,-1.088074419,-0.8789260983,-0.0595219098,-0.5289311409
-1.242117199,0.8277057921,-1.293178109,-0.760771811,0.3283736408,-0.2792421281
-0.6413192972,1.151761513,-1.181314063,-0.6174303293,0.6086145639,-0.05519197136
-0.150324417,1.190232698,-0.8276746664,-0.4780646861,0.7818653584,0.09836925566
0.2099555866,0.9496662844,-0.3227149737,-0.3407318592,0.8425965905,0.1915814877
0.50220601,0.5824018288,0.1926709821,-0.2148816586,0.7773646116,0.2424227148
0.6893453692,0.2905287142,0.5353760199,-0.1147103086,0.6227968335,0.2584277689
0.8550356976,0.1624275272,0.7178153846,-0.03018272109,0.4297990799,0.2618566751
1.035536642,0.1279047876,0.8001736421,0.04766227677,0.1858130544,0.2803320885
1.067410036,0.09687310504,0.7549749025,0.1137718484,-0.08982358128,0.3187725842
0.8910738102,0.08663520414,0.6082055476,0.1493101418,-0.3548637629,0.365825057
0.6981412546,0.1328080495,0.3685983346,0.134275794,-0.5904414058,0.4026269019
0.5075497092,0.2364709608,0.01120179576,0.06892928481,-0.8215132356,0.4044242501
0.1173410158,0.3060255586,-0.4611272729,-0.04885811731,-1.046629906,0.3486215472
-0.4907984809,0.2772089217,-0.9409897876,-0.2019307613,-1.227421522,0.2527999282
-1.114551726,0.192423437,-1.35371631,-0.3876368701,-1.293366313,0.1452826262
-1.552339332,0.1231096623,-1.761723841,-0.5919468999,-1.212094545,0.05908062682
-1.768899432,0.175679223,-2.094580854,-0.7984119654,-0.9595881104,0.01285883971
-1.729319117,0.3858540053,-2.277848194,-0.9798608422,-0.5910055041,-0.01710624993
-1.438809399,0.6736106245,-2.322806988,-1.103443623,-0.2245837301,-0.04754333198
-1.19374509,0.943901145,-2.158186919,-1.145290375,0.07321599871,-0.09011502564
-0.9958692327,1.052728892,-1.857099986,-1.089675069,0.307032913,-0.1257537305
-0.6243500422,0.9814771347,-1.540640419,-0.9470161796,0.4866149127,-0.1447119713
-0.09008125294,0.7961199828,-1.222696459,-0.7624853253,0.603115201,-0.1437537521
0.4004325657,0.5728767523,-0.9127601568,-0.5857507586,0.6540292501,-0.1324893832
0.7909633307,0.4108893701,-0.6067436584,-0.4427709281,0.6125360131,-0.1167999357
1.032259812,0.3306625717,-0.3770731713,-0.3354021311,0.5210548639,-0.08358898759
1.292104926,0.2188210301,-0.2911037376,-0.2556696236,0.3994839489,-0.02537935972
1.506093129,0.109803606,-0.2873497919,-0.2124126703,0.244123131,0.05279294029
1.585825422,-0.02588730545,-0.309788126,-0.194567427,0.06715180725,0.1399855763
1.549441857,-0.1956026516,-0.3163604901,-0.2189870179,-0.1157141477,0.2166409343
1.464779122,-0.3689589846,-0.3395506654,-0.2819989324,-0.2862089872,0.2648287714
1.362262751,-0.4986529937,-0.3808623345,-0.3893823922,-0.4463059902,0.2477451265
1.160352523,-0.5691580241,-0.4544087783,-0.5353249311,-0.5875829458,0.1548678279
0.9046446549,-0.5986474457,-0.6398435255,-0.6865093708,-0.6813014746,-0.002305547707
0.6859744315,-0.6371084015,-0.9042265756,-0.8190791011,-0.7040201426,-0.1898223907
0.5761100352,-0.6750304281,-1.199437602,-0.9227184057,-0.6707231402,-0.3673723936
0.4421528156,-0.6785624016,-1.436074714,-0.9935442209,-0.591947794,-0.5294392109
0.2302285593,-0.5856093927,-1.539585942,-1.039189219,-0.4983957112,-0.6570611
0.01390811384,-0.4142673221,-1.574016911,-1.049362421,-0.4052916169,-0.7477238178
-0.2010053874,-0.2450190089,-1.487799348,-1.033268929,-0.2991310954,-0.7970607281
-0.363441098,-0.1154901272,-1.261400284,-0.9709914923,-0.2048190683,-0.7919496298
-0.516865819,-0.03581540975,-1.050048128,-0.8676903844,-0.1018133163,-0.7283632159
-0.5305056373,0.01244564008,-0.8760992362,-0.7307450771,0.009335669689,-0.6092623472
-0.3972235406,0.04558277052,-0.7431937176,-0.570243001,0.1134029552,-0.4460052848
-0.2111035876,0.06063742405,-0.6726023242,-0.4180353582,0.1942244619,-0.2668552399
-0.01697568472,0.04980974057,-0.5926550734,-0.2994141877,0.2286103964,-0.09491304308
0.1450888544,-0.01957505356,-0.4431958949,-0.218961969,0.2220315039,0.03442534432
0.2917220157,-0.1477285553,-0.2968044335,-0.1757290214,0.1809519827,0.1306059361
0.4170055149,-0.3145566555,-0.2157106247,-0.1587901562,0.1306265891,0.1824371368
0.5284434441,-0.4816635728,-0.1744094953,-0.1695397347,0.06644575298,0.1908268929
0.5847931078,-0.6139344467,-0.1551076875,-0.2012564242,0.01871799678,0.153917864
0.6331131944,-0.6912763373,-0.1400616556,-0.2365486324,-0.02507129684,0.09157566726
0.7051344745,-0.728032535,-0.1289386425,-0.264478296,-0.06113229692,-0.003530414775
0.7205506548,-0.7488128727,-0.1403900291,-0.284070909,-0.0741468966,-0.120186992
0.7606132006,-0.7529822673,-0.1099454987,-0.276257813,-0.06235027313,-0.2467540652
0.7618272526,-0.7669707529,-0.08494927861,-0.2586167753,-0.03091831505,-0.3600848913
0.6985451592,-0.7846671532,-0.1058906521,-0.2310324311,0.01211120747,-0.4571054578
0.5985094985,-0.7906815911,-0.03030145036,-0.1975791305,0.03422130272,-0.5151895881
0.4266945497,-0.7463409296,0.1107334342,-0.1429150552,0.05532163754,-0.5281979442
0.225709036,-0.7323650112,0.1876855949,-0.06575582176,0.08601536602,-0.4827772379
0.1450894389,-0.7233806175,0.1815663813,0.02270941809,0.1404678226,-0.3938640058
0.0782826786,-0.7523784562,0.0471742775,0.09815011173,0.2162379473,-0.277456969
0.02321428685,-0.7975546918,-0.1642152874,0.1418140233,0.3018931448,-0.1469430029
0.0270341374,-0.8068249167,-0.3397947033,0.1491054893,0.3687837422,-0.02413905784
0.0593821633,-0.7983093095,-0.4377450822,0.1180492342,0.3903513253,0.06214807555
0.07398468914,-0.7849018387,-0.4249057666,0.06632958353,0.3915787935,0.09839955717
0.164436529,-0.8364774199,-0.387308588,0.02511883527,0.3850471377,0.08452776819
0.272946588,-0.9486363569,-0.3643818859,0.009632553905,0.3826577663,0.04876231402
0.4224789779,-1.070026064,-0.3525219368,0.02169359662,0.3890087903,-0.006497237831
0.5721919849,-1.137710191,-0.3255911136,0.05182726309,0.3947122395,-0.07060884684
0.6607406215,-1.167770106,-0.2829080101,0.09622543305,0.3942565918,-0.1358744651
0.6013976212,-1.182120119,-0.1732672665,0.1432504654,0.4048578441,-0.1803660393
0.5783563528,-1.19023562,0.02155095675,0.1934897304,0.4178237319,-0.2026273012
0.5407464608,-1.206154197,0.1912322545,0.2466517538,0.3999046385,-0.2218239009
0.4026654394,-1.225359541,0.3560406124,0.2918967009,0.3609046638,-0.238416627
0.1770382364,-1.259936641,0.5157163567,0.31847772,0.284527868,-0.2671710551
-0.144744571,-1.327311849,0.5594166015,0.3064525723,0.09110651165,-0.3299568295
-0.7671312042,-1.370431444,0.4394372731,0.2412983328,-0.3089160025,-0.4424746037
-2.096300079,-1.301099549,0.09689297878,0.1254686117,-0.7808077931,-0.5602536201
-3.573371112,-1.162159573,-0.2236575834,-0.0287119057,-1.18663609,-0.6472066641
-4.530189606,-0.9027021426,-0.4593624552,-0.2038562149,-1.345125437,-0.6489475965
-4.997830499,-0.5290739971,-0.7880870446,-0.3586577773,-1.219999552,-0.5294614434
-4.93395044,-0.03629997839,-1.319751789,-0.4701994658,-0.9273562431,-0.3124001324
-4.748565231,0.6326163508,-1.784724485,-0.5072325468,-0.5050670505,-0.0399675481
-4.290318774,1.26790835,-1.990476044,-0.4546424747,-0.01018550992,0.2475379705
-3.553979599,1.613789096,-1.911237965,-0.3031666577,0.4760536253,0.4929192364
-2.833673858,1.649932568,-1.713836155,-0.07624628395,0.8765468001,0.6654806733
-2.095884484,1.450781869,-1.472885272,0.1966028214,1.150653958,0.7635648847
-1.33250591,1.139695812,-1.26491326,0.459531635,1.315253735,0.8183163404
-0.5616150614,0.8768757735,-1.053296901,0.6684654355,1.414685726,0.8437042236
0.3195446731,0.7338339148,-0.9041044836,0.8153639436,1.43867743,0.835601151
1.049835216,0.6725348119,-0.9036052289,0.8870261312,1.375188708,0.7973847985
1.500002411,0.6353726637,-0.9478126925,0.8940778375,1.231421709,0.7535915971
1.830555385,0.6028145022,-0.9553663958,0.8389956951,1.025644779,0.7140260935
2.054514363,0.5639806214,-0.9343130133,0.7359203696,0.7662964463,0.6800900698
2.153370458,0.524094309,-0.8545750944,0.5925526023,0.477851063,0.6496549249
2.2077912,0.5139700976,-0.7589590037,0.4001643062,0.192570433,0.6067624688
2.253916991,0.5452741674,-0.6614363487,0.1828170717,-0.06955572218,0.5458466411
2.253721761,0.6397489791,-0.5588865132,-0.05024709553,-0.3320550919,0.4590305984
2.154173591,0.756023827,-0.5069632876,-0.2777340412,-0.5898387432,0.3513917625
1.916030606,0.8403548458,-0.4597488973,-0.4602459669,-0.8242931366,0.2282514274
1.628060052,0.8507461837,-0.4200541619,-0.5887565613,-1.027050734,0.1070057005
1.258854399,0.7804431057,-0.4160629733,-0.6844243407,-1.213348508,-0.01684439182
0.7145411853,0.7058087205,-0.4132292112,-0.7788270116,-1.363010764,-0.1341092288
0.05065408244,0.7127385198,-0.4126051245,-0.8902025819,-1.421195745,-0.2425248176
-0.4528922363,0.8388871114,-0.5291610178,-1.004357934,-1.380161405,-0.3326669633
-0.7951046683,1.026338021,-0.6430350881,-1.120970011,-1.245538592,-0.3924571574
-1.086180787,1.210830665,-0.7073886832,-1.222865701,-1.033872962,-0.4195896983
-1.263133099,1.35774352,-0.7814874271,-1.284920454,-0.747572124,-0.4078398347
-1.194705459,1.438669114,-0.8597967745,-1.300043464,-0.4431488216,-0.3668836057
-1.033860817,1.481286605,-0.8654381414,-1.267740607,-0.1532932818,-0.3119216561
-0.7646767968,1.463929812,-0.741826594,-1.186507821,0.07827150822,-0.2512055635
-0.4442874896,1.36705963,-0.5485916214,-1.074564815,0.2552406788,-0.1941087693
-0.1134632976,1.186127016,-0.3604502456,-0.9601719379,0.3772161007,-0.1527589262
0.2445411623,0.9260562763,-0.2008501603,-0.878896296,0.4127821624,-0.139322415
0.4550374316,0.7178422726,0.03029745004,-0.8365752101,0.3885247409,-0.1433722824
0.6280769538,0.548600097,0.1826469796,-0.835103631,0.2999787033,-0.177702412
0.7509644978,0.3612450492,0.2260580322,-0.8658311963,0.1511133313,-0.2344154865
0.7858107702,0.1787789426,0.2303610266,-0.91713202,-0.06237348914,-0.299485743
0.6564081452,-0.002506429863,0.3022356282,-1.002715826,-0.4037577212,-0.3730771542
0.1796329291,-0.1667149953,0.3715001935,-1.129780531,-0.8731231689,-0.4822998345
-0.5639145705,-0.3454977373,0.2597551163,-1.276220322,-1.421491623,-0.6262434125
-1.153332416,-0.6484440345,0.1174319455,-1.43592,-1.907075882,-0.7876701951
-1.458192145,-1.016572121,0.08134791139,-1.602144718,-2.168663502,-0.9596694112
-0.7791004589,-1.350143858,0.1566644519,-1.762622237,-2.171198845,-1.069996238
-0.1510813728,-1.618835858,0.1538483533,-1.891162634,-1.744893432,-0.9856872559
0.7488695713,-1.973032304,0.1411058857,-1.99261415,-1.079886913,-0.7708360553
1.606633817,-1.839333443,0.3424159917,-2.028580427,-0.4672195613,-0.504791081
1.056739589,-0.9905658656,0.2208371192,-1.960775137,-0.04417163134,-0.2703510225
0.2573708332,-0.1216794834,-0.4240172933,-1.759081721,0.1995747238,-0.1157939285
-0.1442524036,0.2248664477,-0.948485331,-1.436825156,0.408832401,-0.02215689607
0.06628185968,0.02043064748,-1.212650428,-1.030745029,0.5854859352,0.03106984124
0.769689072,-0.5389177841,-0.9293039529,-0.6346259713,0.5843778253,0.07594399154
0.8808961151,-1.0596508,-0.5688909706,-0.324316889,0.3683656454,0.1144439802
0.3991881186,-1.236804187,-0.2084870119,-0.1469116062,0.09674873203,0.1409410685
-0.01011632034,-0.8919232666,0.155746369,-0.1303800344,-0.01168959029,0.1470154822
0.1296130529,-0.3712406658,0.4248179787,-0.3288432956,0.1220530272,0.1387307644
0.6911153015,0.1316886901,0.9810768103,-0.6830900908,0.332676053,0.1357522905
1.334623633,0.8197273606,1.546649158,-1.006926656,0.5888710618,0.1271171868
2.062200826,1.212170973,1.843276335,-1.118668556,0.6628323793,0.09090378881
2.139859235,0.8340965161,1.745357374,-1.023183823,0.2973960936,0.1472564936
1.252656713,0.06634089639,1.248718351,-0.8443588614,-0.2049266994,0.3680570424
0.6054091949,-0.6845227714,0.9469726614,-0.7094480991,-0.5260443687,0.6653690934
0.7274258013,-0.9218629162,1.012166068,-0.6669131517,-0.7929612994,0.9665853977
0.6879729118,-0.5495473147,1.138910653,-0.71377033,-1.162050128,1.256718278
0.2663923441,0.008976210399,1.292427436,-0.8250052929,-1.588088512,1.550884724
-0.1399988378,0.2430892099,1.393392925,-0.9707604647,-1.952166915,1.684921503
0.02234042662,0.1171177284,1.241433016,-1.068199396,-2.237368107,1.350253224
-0.7127408578,-0.3953226754,0.8586182323,-1.038945436,-2.217058659,0.7765875459
-0.4547591992,-1.158383561,0.5938117691,-0.9360562563,-1.831368446,0.3861745298
1.507049407,-1.40846453,0.4003542398,-0.8178599477,-1.483103037,0.2314160764
2.349798455,-0.6492761014,-0.06292020123,-0.733835578,-1.26298666,0.1737365276
1.6149615,-0.04358107531,-0.3929472515,-0.6734125614,-1.23391223,0.1256658584
0.5338093551,-0.1397042388,-0.3076084438,-0.6361194849,-1.448707819,0.1211241037
-0.3372843279,-0.2775000136,-0.01671067711,-0.6359444857,-1.748007417,0.2448112369
-0.9718249247,-0.4047951449,0.3165919608,-0.7165213227,-1.920878768,0.4202767909
-1.372971192,-0.4132473314,0.4146617282,-0.8567141891,-1.886147738,0.5868293643
-1.084428391,-0.3625333355,0.2574801388,-0.9767178297,-1.597326636,0.7400897741
-0.1169482171,-0.3100657739,0.1060666115,-1.000964522,-1.143418074,0.8221796155
1.082016653,-0.2537514737,-0.05716361046,-0.9246373177,-0.771283865,0.7952521443
1.663382709,-0.5493374713,-0.2993456424,-0.8584383726,-0.6818665266,0.7337322831
1.234483928,-0.6279705708,-0.04526464448,-0.7482764721,-0.8120913506,0.4728994071
-0.1697866578,-1.293743341,0.2267262503,-0.6120303869,-1.270048738,0.0463533625
-2.508323129,-2.324266246,0.3241558201,-0.4969789088,-1.931155324,-0.4009751379
-5.059042216,-2.870253823,0.2771487159,-0.4894867539,-1.216307163,-0.8909039497
-5.042898306,-2.739939928,-1.104736727,-0.4887565076,-0.8905027509,-1.335432649
-4.781525836,-1.58058986,-3.426941365,-0.5568299294,-0.09899032116,-1.665666819
-4.417527104,-0.5397779081,-4.507478593,-0.6895189881,0.7843916416,-1.788716078
-4.188174743,-0.02016395937,-4.662380985,-0.7725328803,1.252358437,-1.693500161
-6.236846809,0.0009144844964,-3.765876967,-0.7672270536,1.377930522,-1.265230894
-7.334651983,0.2090215206,-2.931962968,-0.6641054749,1.297830582,-0.6171397567
-6.924319955,0.4708180614,-2.087238382,-0.5330191255,1.166348219,0.03948740289
-5.275115993,0.7835980626,-1.166050735,-0.3924290836,1.021093369,0.5815067887
-3.042354603,0.9266393368,-0.1968479755,-0.2354043126,0.7454839349,0.9798312783
-1.342000884,0.8730991776,0.4122079053,-0.1062504575,0.402091682,1.342664361
-0.06298048005,0.7642550642,0.7949484548,-0.03608069196,0.05418245494,1.681543589
1.110216912,0.6685290834,1.084380021,-0.0477839075,-0.2676460743,1.905179501
2.113349414,0.6381672629,1.157567861,-0.1040969789,-0.5780929327,1.92121923
2.658546424,0.5130126507,0.9703503222,-0.1514795572,-0.8479771614,1.755427718
3.001452684,0.2873506687,0.5832734971,-0.2005456239,-0.9959554672,1.498889089
3.604505671,0.003746785313,0.1580646558,-0.2862877846,-1.070578694,1.167785645
4.042036087,-0.1743412524,-0.1925249977,-0.3995685279,-1.094031334,0.7931806445
4.108244297,-0.1608630544,-0.3155525347,-0.508921206,-1.07604301,0.437158972
4.057124935,-0.025808395,-0.2793051633,-0.6079857349,-1.044518948,0.1163644344
3.777015031,0.1935349054,-0.2724227103,-0.7003913522,-0.9485860467,-0.1483395994
3.45660059,0.4698775656,-0.3346237304,-0.7986670732,-0.7883028984,-0.3805525899
3.194110514,0.774922881,-0.5435222092,-0.9045634866,-0.5745788217,-0.5878232718
2.91240545,1.146777003,-0.7324692023,-1.040448546,-0.3839966059,-0.7573348284
2.392450433,1.568128145,-0.6922039735,-1.175707817,-0.2438877821,-0.8650971055
1.719926434,1.738841563,-0.4000337757,-1.256516933,-0.1206654385,-0.9048085213
1.1906027,1.653474771,0.0154343005,-1.265447855,-0.01096880902,-0.8892994523
0.8074988704,1.580296722,0.3156459121,-1.204251409,0.09699520469,-0.8194945455
0.5903554181,1.653862309,0.5288154923,-1.111567378,0.2294464111,-0.7273877263
0.7105231818,1.773254412,0.6427079751,-1.046444535,0.3591154516,-0.6482899785
0.9302057972,1.855753539,0.6911287455,-0.981616199,0.4325411022,-0.6090814471
0.9648714523,1.731686138,0.7783236293,-0.8819899559,0.442132473,-0.5750377178
0.8651409121,1.440056184,0.8732960153,-0.7050609589,0.3975329399,-0.5209151506
0.6338280646,1.029639985,1.139522063,-0.4927873611,0.3899783492,-0.431727469
0.544943328,0.6555933217,1.33312185,-0.3004494011,0.3579427302,-0.3529893756
0.5008668704,0.4470741977,1.14725748,-0.1542711556,0.2999529243,-0.2755912542
0.2427110243,0.428770187,0.909784502,-0.05344744027,0.2364629507,-0.2067144811
0.1086462527,0.4713961535,0.6344412281,0.0001819630852,0.1797357649,-0.1578811556
0.09892214652,0.4672194523,0.3717586983,0.02381891198,0.1259085834,-0.1421016604
0.09939268664,0.3476286118,0.0879907104,0.03763911873,0.03755875677,-0.1413810104
-0.1377303083,0.1526879312,-0.1447753315,0.04100265354,-0.06103964895,-0.1162087396
-0.5172574487,-0.009331015186,-0.1164556113,0.04220560193,-0.08218754828,-0.07543121278
-0.5706628757,-0.1328892981,-0.08781973775,0.04997220635,0.03022546694,-0.04185657203
-0.3320283071,-0.158401925,-0.3207349058,0.06165575609,0.2065898329,-0.0176234059
-0.135091192,-0.04948094701,-0.6541003798,0.07139346749,0.4521998465,-0.00429094024
0.0866834272,0.06757686793,-0.8627867501,0.06894868612,0.7988957167,-0.01740407944
0.4447147751,0.09022679889,-0.8653302971,0.06472948939,1.146430254,-0.04959455505
0.691289489,-0.0124357032,-0.8413341392,0.08608058095,1.388538718,-0.08156765997
0.6323188291,-0.2715928353,-0.8784519368,0.1198234633,1.500528336,-0.1159536466
0.3956815718,-0.5345218872,-0.8847603162,0.1599546522,1.492626905,-0.1291339099
0.2573264096,-0.7427589795,-0.7924158676,0.2113824189,1.385773897,-0.1287413836
0.2056967601,-0.9569102642,-0.6171346309,0.246959582,1.189646721,-0.1276681274
0.1017553241,-1.154305644,-0.4919649308,0.2543781996,0.9691213369,-0.09596687555
0.03085515699,-1.15137982,-0.4984312408,0.2278123498,0.7873573899,-0.04147034883
0.1029296286,-1.107815988,-0.5676788914,0.1956638545,0.6564161181,0.03490737453
0.2203793655,-1.079712176,-0.6881830474,0.1769823134,0.548659265,0.1347380877
0.1981558432,-1.088255548,-0.8895983308,0.1883651018,0.4309939742,0.2544589043
0.1306663613,-1.09796621,-1.005262719,0.2158324122,0.3337393105,0.365618974
0.1545195306,-1.11310708,-0.9867463073,0.2431203723,0.287325561,0.42549178
0.2999988456,-1.137867135,-0.9246008898,0.2335545719,0.3069072366,0.4162735045
0.4386608819,-1.160342587,-1.026375503,0.1903487593,0.3517387211,0.3475176394
0.466316366,-1.158283024,-1.345748838,0.1322449744,0.3903284371,0.2546521723
0.293065247,-1.180679272,-1.56814685,0.08866182715,0.4150759578,0.1753918678
0.1465793852,-1.23584674,-1.607976756,0.05127770081,0.4370997548,0.1217238605
0.0630967999,-1.259338675,-1.561326356,0.0129033057,0.4628121853,0.09557938576
0.09990005164,-1.184314121,-1.459835675,-0.016831154,0.4720424414,0.08994413912
0.1912239981,-1.087500053,-1.369222945,-0.01876241155,0.4511093795,0.09711525589
0.3008680297,-1.014240463,-1.27188646,0.005269155838,0.4144989252,0.1307549775
0.456968692,-0.9257190071,-1.090148522,0.04550769553,0.3458473384,0.1730496287
0.5997948621,-0.8509609955,-0.8232469861,0.1038740724,0.2583172321,0.2049364448
0.6830716958,-0.8025885943,-0.5824386537,0.174162969,0.1781103909,0.2447516322
0.7277291681,-0.7675614123,-0.490104288,0.2561047077,0.1392655224,0.2927913368
0.8792150301,-0.719327835,-0.4896753951,0.3356857896,0.1361976415,0.323369652
1.000787984,-0.6841703047,-0.4162674099,0.389737308,0.1746459752,0.3175735474
1.170365383,-0.6773147397,-0.2340421993,0.4384101033,0.224102214,0.2664723694
1.268506024,-0.7806745764,-0.04293547089,0.4966044128,0.2333348691,0.1738417745
1.230817806,-1.022704633,0.2573814277,0.5556479692,0.05896179378,-0.004048355855
0.7669365584,-1.347071611,0.6068823362,0.574533999,-0.3277659416,-0.2550712824
-0.2756909183,-1.689997745,0.8955801817,0.5209977627,-0.7419835925,-0.4316164851
-1.359889592,-1.754377862,1.053818148,0.4524767399,-1.054484725,-0.4052615762
-1.973169374,-1.212111644,0.9144875652,0.4145235121,-1.268659592,-0.2593533993
-2.665309927,-0.2674713715,0.3403841206,0.3199645281,-1.405414343,-0.1070280299
-3.340427449,0.6858905526,-0.5399773762,0.1766135246,-1.340692639,0.02941736206
-3.764067287,1.469921746,-1.434097861,0.06108186021,-1.126350522,0.0766730234
-3.849994927,1.681656325,-1.872821871,0.02228520811,-0.8982031941,-0.04710650072
-4.158898964,1.369340142,-1.662606026,0.03951133043,-0.651586771,-0.2988346219
-4.49982954,1.010917456,-1.304388654,0.06223284826,-0.3181438148,-0.5110847354
-4.560605788,0.9439920382,-1.095860397,0.08291734755,0.1153554469,-0.552949667
-4.318966776,1.079732049,-1.016921811,0.1196711063,0.5407463908,-0.4156104326
-4.067929238,1.234189036,-1.018770435,0.1988546103,0.9020603895,-0.1580926329
-3.569837677,1.241204468,-0.9353044355,0.2984671891,1.134648919,0.137563616
-2.780572967,1.147919743,-0.7385967452,0.375659734,1.203129649,0.392971158
-1.975100634,0.9817419231,-0.5709197,0.4015781283,1.106514096,0.5736278892
-1.243940907,0.7577616106,-0.5730398339,0.3822054863,0.8638582826,0.6990510821
-0.140763977,0.3502960774,-0.7524030792,0.3088150322,0.5272049308,0.7756908536
0.2486614571,0.4170423398,-0.9375796869,0.1812599748,0.1429432333,0.7985711098
0.555223899,0.5707879634,-1.20600003,0.03088634089,-0.222782746,0.7853190899
0.8096534181,0.6655947835,-1.446209154,-0.1129706949,-0.514016211,0.7420877814
1.017205451,0.7681611318,-1.655849683,-0.264192909,-0.7074471116,0.6789106131
1.153360473,1.017459718,-1.828717356,-0.4174972475,-0.8020735383,0.6094290018
1.178687806,1.245273617,-1.933250036,-0.5510057211,-0.8270449042,0.5303535461
1.164941605,1.397718679,-2.054867998,-0.6757454872,-0.8019928336,0.4505921304
1.138795941,1.542081265,-2.109252061,-0.8046454787,-0.7578430176,0.3620810509
1.085820722,1.661429237,-2.087771905,-0.9269189239,-0.7088121176,0.2613914609
1.054954459,1.726752189,-2.027856804,-1.035056591,-0.6694369316,0.1610588282
0.9710749832,1.799855127,-2.025057967,-1.124296784,-0.6540638208,0.06361615658
0.8166916462,1.838397915,-1.979305685,-1.198281646,-0.6618013978,-0.01425418444
0.6295113705,1.893256756,-1.833842152,-1.254887104,-0.6999996901,-0.05732522532
0.5106190336,1.949167736,-1.698902351,-1.294917107,-0.7453227043,-0.07660378516
0.3969388784,1.971848355,-1.566384224,-1.305057406,-0.8013672829,-0.08468487859
0.3373848657,2.015591635,-1.451050603,-1.302384377,-0.8342075944,-0.1022184715
0.3501572535,2.045193284,-1.384131322,-1.299878836,-0.8372167349,-0.1316703707
0.3135281893,1.990790371,-1.274108959,-1.30008781,-0.8257351518,-0.1743725687
0.2795066772,1.912526397,-1.190719751,-1.304789066,-0.8028623462,-0.2220740467
0.2972270428,1.886450583,-1.103281852,-1.318806648,-0.7739413381,-0.2698251605
0.3026414691,1.816487405,-0.9779584591,-1.338379622,-0.7495726347,-0.310626924
0.3342927449,1.668175204,-0.8087823344,-1.359277606,-0.7190145254,-0.3562823534
0.3388783191,1.479309167,-0.5747598627,-1.370336652,-0.699903965,-0.4065452516
0.3616910394,1.306010702,-0.3024507323,-1.363351703,-0.6763458848,-0.4423168302
0.3851327053,1.156892154,-0.07646192944,-1.34322679,-0.6753568053,-0.4848142266
0.2857780126,0.9820382757,0.1027185066,-1.313230634,-0.7252675891,-0.5229483247
0.1226326925,0.7502280002,0.3245729861,-1.280587435,-0.8198543191,-0.5635223985
-0.08903378972,0.535115177,0.4548511153,-1.248833179,-0.9332638383,-0.5811895132
-0.3261602918,0.3770312319,0.4383492586,-1.220262527,-1.053556919,-0.5698788166
-0.5505266811,0.2308683185,0.3421973805,-1.189215302,-1.152329803,-0.5514965653
-0.6582908903,-0.04385784643,0.1393129014,-1.185903072,-1.140311003,-0.6504279375
-0.7782260142,-0.3364335563,-0.1169165068,-1.178219676,-1.072068572,-0.7194222808
-0.8688397666,-0.4436766642,-0.1404304341,-1.190440297,-0.9609146118,-0.740845561
-0.9642840079,-0.5316457473,-0.1637696626,-1.206504822,-0.8377360702,-0.7017939091
-0.924178792,-0.6172846339,-0.1603806777,-1.221334815,-0.7157321572,-0.6109737158
-0.8091928149,-0.6289896847,-0.1065817214,-1.225862503,-0.6147232652,-0.4753682315
-0.6261737505,-0.5896618829,0.05746792717,-1.225115538,-0.5595833063,-0.3329620659
-0.4519985023,-0.5806874261,0.3137814334,-1.206912756,-0.5631944537,-0.2170851231
-0.2401204232,-0.616747166,0.5989243629,-1.164029241,-0.6110343933,-0.1338693351
0.0328314255,-0.596132248,0.7952820707,-1.116044998,-0.6533495784,-0.09206579626
0.2783212668,-0.536377452,0.8918948443,-1.066311836,-0.6810115576,-0.07465884089
0.4266922116,-0.5134045727,0.9063880645,-1.014720321,-0.7118828297,-0.08852443099
0.4567085797,-0.4657593167,0.8807917779,-0.9796603322,-0.73133111,-0.1052474827
0.5078583367,-0.4269581691,0.8354374093,-0.9462648034,-0.7217162251,-0.1128440574
0.5750047043,-0.3881011997,0.7746236058,-0.9158672094,-0.689994812,-0.1017711684
0.6021843876,-0.3293772081,0.6848230695,-0.8846897483,-0.654040575,-0.08786480874
0.643237698,-0.3009764585,0.6208510211,-0.8531680703,-0.6260609031,-0.07545074821
0.7084516362,-0.3034755818,0.6244676772,-0.8189560175,-0.6003653407,-0.05230990797
0.8077303411,-0.3094181236,0.6063402652,-0.7920034528,-0.5895073414,-0.03502865508
0.8831137911,-0.3515115907,0.5263808856,-0.7831172943,-0.597343266,-0.03892387077
0.9342255542,-0.4475590586,0.3923715705,-0.7922460437,-0.6119975448,-0.07741188258
0.952498293,-0.572554973,0.3118846599,-0.8054024577,-0.6227903366,-0.1095957905
0.9253519274,-0.6606053047,0.2389373509,-0.8117927313,-0.632612884,-0.1284557581
0.8350503097,-0.671480919,0.1928982149,-0.8028172851,-0.655346036,-0.1298395991
0.7606751599,-0.6906725262,0.1512805487,-0.7803782821,-0.671672523,-0.1117831096
0.7551169413,-0.7235752633,0.09414601816,-0.749124229,-0.6758055091,-0.06231204793
0.7778618571,-0.7600757327,-0.006813917799,-0.7177505493,-0.6730531454,-0.0191770941
0.8068366071,-0.8492720195,-0.09703750182,-0.6917971373,-0.6624864936,0.01480088942
0.905407456,-0.9774006791,-0.1578847692,-0.6714590788,-0.6445826292,0.03598553687
0.9940969623,-1.115582238,-0.1569748148,-0.6565437913,-0.6428226829,0.04386157915
1.045530212,-1.256263798,-0.1598743356,-0.6341567039,-0.6412311792,0.04945768043
1.082840245,-1.407488963,-0.1971457894,-0.6049268842,-0.6396200061,0.04821950197
1.069544125,-1.526532106,-0.2906074785,-0.5843915343,-0.6226050854,0.02777095139
1.096473049,-1.665291758,-0.3747247085,-0.5762685537,-0.5857578516,-0.01547735278
1.088952006,-1.879259503,-0.3579794716,-0.5746352673,-0.5377213955,-0.06705079973
1.047466733,-2.054008459,-0.2610710029,-0.5773507953,-0.496415168,-0.1343933046
1.04756844,-2.251343634,-0.1820021424,-0.6111851931,-0.4142419994,-0.2926894724
0.9614905777,-2.55643308,-0.2065301422,-0.6594840884,-0.3119830191,-0.5202160478
0.5715490109,-2.794332028,-0.2568551388,-0.7374590039,-0.2590689361,-0.8146916032
-0.4636012618,-2.975690173,-0.3113401777,-0.8202503324,-0.4034686387,-1.183541417
-2.14627787,-3.027581981,-0.2564244923,-0.9251192212,-0.7299910784,-1.541418076
-3.853002293,-2.709737974,-0.2111618937,-1.022089481,-1.143038034,-1.667093873
-5.345756048,-1.792679828,-0.1808285686,-1.095138431,-1.698682666,-1.282016754
-6.119141636,-0.4205553163,-0.2540568864,-1.15596509,-2.137645245,-0.7521700263
-5.752941595,0.4098448295,-0.9247961932,-1.140105367,-2.315412045,-0.2931529284
-4.7308209,1.064549386,-1.394684572,-1.06234169,-2.230840445,0.02105841413
-3.75561627,1.656242482,-1.387073075,-0.9532207847,-1.952252507,0.1561403424
-2.77011061,2.019054635,-1.153505434,-0.8292279243,-1.54393065,0.1288363934
-1.723963727,2.268141331,-0.883183057,-0.7041600347,-1.023380637,0.00100359763
-0.7264291915,2.437990241,-0.692037677,-0.6080569029,-0.443662703,-0.1492178738
0.1492126563,2.488628249,-0.4491059958,-0.5475930572,0.1173596084,-0.2982997596
0.8117389922,2.481830552,-0.07246785484,-0.5198734403,0.5771475434,-0.4213913679
1.018891796,2.40977157,0.4009975062,-0.5146912336,0.8598700762,-0.4789212644
0.5698977365,2.204316509,0.9642122578,-0.4837623537,0.9499077797,-0.4015986025
0.2128495545,2.050223972,1.053758235,-0.3956878781,0.9432418942,-0.177664578
0.2235194171,2.095611512,0.5730962403,-0.2776663601,0.880350709,0.1106320471
0.3884866919,2.065177211,0.09377104737,-0.1768923402,0.7741193175,0.3974124193
0.6414800407,1.947393128,-0.130939333,-0.140201509,0.6226447225,0.6352221966
0.8531114516,1.79659028,-0.2852326536,-0.164987281,0.4347126484,0.8047374487
1.087113684,1.591965533,-0.403596875,-0.245367378,0.2303383797,0.8991385698
1.342839088,1.41819565,-0.4851613517,-0.3572736681,0.03858598322,0.8886089325
1.603157665,1.362147308,-0.5808991691,-0.4961767495,-0.1196384579,0.7555065751
1.874683865,1.349622173,-0.6635561173,-0.6509417892,-0.2149545997,0.5173256993
2.083103913,1.323341484,-0.6763887109,-0.8096783161,-0.2373066247,0.208827585
2.132917453,1.332985803,-0.6814905641,-0.9578614235,-0.1832580417,-0.1211495176
2.064417917,1.390870129,-0.7202962417,-1.076288581,-0.06573788077,-0.4490582347
1.828790714,1.430932675,-0.6205307762,-1.159784555,0.065826267,-0.7437093258
1.40006495,1.43523534,-0.381035353,-1.203356266,0.1666397154,-0.9594038725
0.9841665199,1.401010415,-0.1696174387,-1.20785892,0.220006004,-1.100565195
0.5479477705,1.368651575,0.008666413797,-1.186356187,0.2291040123,-1.167102337
0.07774842559,1.292251641,0.2070258168,-1.13471961,0.2112605721,-1.141359329
-0.285242006,1.199566636,0.3446208083,-1.047802687,0.1842498779,-1.035739303
-0.4489250862,1.153771099,0.3962411054,-0.9252737761,0.1612662524,-0.8842566013
-0.4805319384,1.053060316,0.4275418142,-0.7811615467,0.123745352,-0.7221403718
-0.4220651364,0.7713304095,0.490688883,-0.6095999479,0.07736880332,-0.5799957514
-0.2845920177,0.4225982203,0.578945697,-0.4133002162,0.01581363007,-0.4750083089
-0.1521773514,0.1117483103,0.5919191603,-0.209774822,-0.05712768808,-0.4062657058
-0.04013327295,-0.1591866456,0.4622141914,-0.0186236091,-0.1404827237,-0.3621759117
0.04774199438,-0.4342413118,0.2810603364,0.1396360695,-0.2162334025,-0.3203379214
0.1151087267,-0.7261608959,0.1020573758,0.2604421675,-0.2901692092,-0.2751553059
0.1449281109,-0.9347112919,-0.1230817514,0.3418302238,-0.3681135476,-0.2281518579
0.1551134048,-1.056938911,-0.3604588673,0.3784685731,-0.4397080541,-0.1808741093
0.191753575,-1.175144727,-0.52419397,0.379237175,-0.5039224625,-0.1326647699
0.1681242776,-1.246135495,-0.5899572126,0.3479978442,-0.5611345768,-0.08400435746
0.1153852055,-1.278590196,-0.6047567223,0.3014580309,-0.5971708298,-0.03513801098
0.09792670574,-1.266001056,-0.567266219,0.2531396449,-0.5994198918,0.01811789349
0.1000678094,-1.162638589,-0.5362880201,0.2191720903,-0.5668513179,0.07171907276
0.1306120008,-1.032094685,-0.473147235,0.193568483,-0.512748301,0.1274229884
0.176586401,-0.9460454636,-0.3821354232,0.1876413375,-0.4308627248,0.178338632
0.2606482475,-0.9064148795,-0.2098223156,0.1908222586,-0.3406027853,0.2077900022
0.2944493948,-0.835793237,-0.07590586646,0.2094081938,-0.2484052032,0.2119754255
0.3592150047,-0.8208882211,0.041686786,0.2350704074,-0.1683301479,0.1945925355
0.3807669113,-0.8359741465,0.1282325583,0.2610018551,-0.1164621562,0.1635422111
0.3511947798,-0.8653697524,0.1581565719,0.2677723467,-0.1012578458,0.1378211081
0.2882072855,-0.9174535754,0.1325754098,0.2497304976,-0.1077429131,0.1237148792
0.1692109038,-0.9874182152,0.07445727509,0.2164720297,-0.1141623184,0.1186378822
0.06514087295,-1.044605207,0.01793766162,0.1800908446,-0.1173988581,0.1214179546
-0.04385200121,-1.07073012,-0.06029153323,0.1552554369,-0.1162893325,0.133618027
-0.1734410887,-1.097741169,-0.1264768007,0.1395816803,-0.1238428652,0.1497336179
-0.2754121014,-1.12752782,-0.1922694155,0.1242263988,-0.1158188507,0.1627989113
-0.2978285158,-1.144902149,-0.3093772071,0.0966893211,-0.0835898146,0.1674778163
-0.3215367237,-1.127430205,-0.5460100805,0.05145188048,-0.02901770547,0.1664621234
-0.3700567167,-1.158861993,-0.6844879923,-0.009272984229,0.02281539887,0.1589501351
-0.4688584517,-1.180715805,-0.7281976624,-0.07132641971,0.0506340079,0.1442163885
-0.5455500617,-1.198577625,-0.8090591055,-0.1316403598,0.08426440507,0.1382565051
-0.5534715024,-1.174453529,-0.9175031136,-0.1711573899,0.1537414044,0.1329737902
-0.5985603519,-1.126154486,-0.9894969212,-0.1962712556,0.2314553708,0.1317015886
-0.6504366696,-1.137419976,-0.9854822787,-0.2101053894,0.3068169355,0.1558741033
-0.6121627608,-1.173137478,-0.9315746013,-0.2194653302,0.3643689156,0.1986905336
-0.5300882887,-1.168978313,-0.8844472317,-0.2241616547,0.4107548594,0.245151937
-0.3962134867,-1.174890752,-0.8569488378,-0.2086058706,0.4538639784,0.294819355
-0.1994797853,-1.200018179,-0.8360219312,-0.1737679541,0.5351765156,0.3683489859
0.03880582373,-1.284460549,-0.8361262684,-0.1189838052,0.6386930346,0.4617172778
0.305457111,-1.386486215,-0.7893957891,-0.0481562838,0.7277198434,0.5468730927
0.5496855541,-1.558724065,-0.7498363705,0.03705421835,0.7760639191,0.5849946141
0.7188684008,-1.841956192,-0.7027528401,0.1003661156,0.7500801086,0.5641130805
0.6796855605,-2.077111979,-0.7352363289,0.1171075478,0.6314874291,0.473536551
0.3850432734,-2.116542364,-0.859749136,0.04769815132,0.3517204225,0.296128124
-0.3266974675,-2.125895299,-1.040792516,-0.1025451496,-0.1497411132,-0.04615703225
-1.223250001,-2.028288911,-1.240753655,-0.2992178202,-0.7341187596,-0.4999051988
-1.977051184,-1.62969116,-1.391794258,-0.5143713951,-1.192840457,-0.8981558681
-2.569295777,-0.8685305545,-1.479847366,-0.6947574019,-1.420722008,-1.125704288
-3.189558257,0.04022358158,-1.626780825,-0.7962470055,-1.430912852,-1.147637367
-3.43517494,1.062721586,-1.867682316,-0.8291907907,-1.196079731,-0.9742519259
-3.25095819,1.972105544,-2.119697906,-0.8098298907,-0.7765266299,-0.6816485524
-2.835458404,2.655322201,-2.217496894,-0.7910674214,-0.2560347319,-0.3347053826
-2.249702004,2.986614303,-1.973453598,-0.7907717824,0.2578006387,0.01024160534
-1.527131826,2.962446369,-1.290776747,-0.8139267564,0.669647634,0.2868439555
-0.5900508822,2.891818004,-0.4852586746,-0.8447515368,0.9695818424,0.439858526
0.3355085504,2.932705895,0.1422100841,-0.8423976898,1.168404579,0.4645743072
1.16789987,2.88513838,0.5764876363,-0.7919638157,1.293697238,0.4179136157
1.819310353,2.714738851,0.8308649868,-0.6968576312,1.336153984,0.3196238279
2.166810955,2.525652742,0.9849063785,-0.5790801644,1.280805826,0.1953103989
2.310089545,2.35657774,0.9954879783,-0.4622006118,1.125114322,0.09404257685
2.230519164,2.152642436,0.899768208,-0.3591791689,0.8636274934,0.04006775841
1.955976247,1.930764941,0.7164305792,-0.285836786,0.489607662,0.0421525538
1.527533392,1.745761717,0.4800038959,-0.2634534538,0.04242322221,0.09442295134
1.141215861,1.635982953,0.08417670507,-0.3147771955,-0.4024374485,0.1813255101
0.8044283769,1.532556774,-0.3507842263,-0.4195224941,-0.8024224043,0.2656366527
0.4627794241,1.491553732,-0.6267454129,-0.5562975407,-1.150962949,0.2890998423
0.1997463273,1.469775031,-0.8059136471,-0.6891216636,-1.414983392,0.2221429348
-0.01784954495,1.396649297,-0.8462906656,-0.8039509654,-1.58528018,0.09201710671
-0.2852361608,1.32171739,-0.7339179398,-0.8897081614,-1.61992681,-0.06806150824
-0.4540969359,1.305178343,-0.5845363566,-0.9359348416,-1.498240113,-0.1934192777
-0.6164397075,1.423925134,-0.4862326342,-0.9440854192,-1.245126367,-0.2604425251
-0.7139145778,1.546640828,-0.3998642643,-0.9151688218,-0.9143529534,-0.2772716582
-0.719981915,1.604777668,-0.3066235245,-0.8730762601,-0.5601935387,-0.2678254247
-0.6532698472,1.58503924,-0.2035514186,-0.8212099075,-0.2339791358,-0.261357367
-0.5336889435,1.508242124,-0.08806392177,-0.782489419,0.01631699316,-0.2767791748
-0.3964905501,1.403345579,-0.03604074294,-0.7750567198,0.1580652744,-0.3061229289
-0.3152946144,1.266507252,-0.004353665165,-0.8007255793,0.1900812536,-0.3238574564
-0.1377057584,1.142640049,0.1110140047,-0.8458948135,0.1619929969,-0.3089745045
0.03599544249,1.126817041,0.2636450912,-0.8931017518,0.08842238039,-0.2746700644
0.1785521481,1.137952768,0.4599040148,-0.9212139249,-0.01289031655,-0.2331245095
0.2978513122,1.132981701,0.6899870281,-0.9100568891,-0.1207430139,-0.1983044893
0.3924631943,1.152322946,0.9239024592,-0.8712376356,-0.2389692068,-0.165866673
0.4077209692,1.156176699,1.105023143,-0.8060519695,-0.3615491688,-0.1461081505
0.3622837446,1.136749237,1.175459638,-0.7351308465,-0.4737165868,-0.1254674792
0.2524795541,1.045990523,1.172703179,-0.6676687598,-0.5813642144,-0.1091082171
0.1101367835,0.934900677,1.102259523,-0.6155536771,-0.6860018969,-0.09614806622
-0.06469429823,0.7829784694,1.045535035,-0.5827997327,-0.7697327733,-0.08983930945
-0.1990747116,0.642130029,0.9937041636,-0.5590654016,-0.8402039409,-0.0846318379
-0.3101403004,0.5096826295,0.9560938333,-0.5395516157,-0.8854606748,-0.09511058033
-0.4006593602,0.3792009771,0.873701089,-0.5253756046,-0.8964065909,-0.1305955201
-0.4714858776,0.2116737887,0.7501756855,-0.5090845227,-0.8795237541,-0.1743214279
-0.5687532427,0.04275865301,0.6872128872,-0.5025708675,-0.8381593823,-0.2081769258
-0.6443108802,-0.1117459723,0.642211716,-0.5084247589,-0.7565582395,-0.2155762464
-0.6037029755,-0.2460606269,0.6662940178,-0.5320264697,-0.6378031373,-0.2101811022
-0.5154810867,-0.335930283,0.8018561884,-0.5674073696,-0.5073926449,-0.2131422758
-0.3924567646,-0.4269061467,0.9651023385,-0.5925387144,-0.3728885949,-0.2495562583
-0.23494682,-0.5394494068,1.151671497,-0.5910074115,-0.270211488,-0.3334599733
-0.1495756444,-0.7826648734,1.315997551,-0.5907706022,-0.2151196301,-0.4172716737
-0.1478226633,-0.9960440047,1.395834473,-0.5866216421,-0.2080489397,-0.4772013128
-0.2083072349,-1.057965331,1.396709795,-0.578166604,-0.2275251746,-0.4880105555
-0.314454072,-1.141967556,1.412056271,-0.5659171343,-0.2637534738,-0.4361374974
-0.3856763106,-1.24627841,1.442726719,-0.5610460043,-0.316457361,-0.3570833504
-0.4424181886,-1.313673784,1.450930922,-0.5655166507,-0.3800789416,-0.2706869245
-0.4329395816,-1.387605282,1.41951477,-0.5604682565,-0.4315668344,-0.2086404711
-0.3823930512,-1.413584649,1.348965462,-0.5589933991,-0.4593153894,-0.1478956342
-0.3071720982,-1.412458276,1.280665102,-0.5604726076,-0.463704139,-0.08991493285
-0.2139104617,-1.402218329,1.22716133,-0.5677148104,-0.4600295126,-0.03207800165
-0.09313011912,-1.406949157,1.170785655,-0.5904009938,-0.4509804845,0.01657527871
0.02726326998,-1.423659761,1.189858604,-0.6056292057,-0.4451023638,0.05462732539
0.1674532464,-1.406216751,1.27323466,-0.6179330349,-0.4410436153,0.08549423516
0.3338216202,-1.347066058,1.357164259,-0.611861825,-0.4347971678,0.1096051633
0.5003051449,-1.325581664,1.437412976,-0.6059623957,-0.4241139889,0.1295002848
0.6239671804,-1.311597562,1.494260799,-0.6029304266,-0.4148211479,0.1285908073
0.7583060927,-1.331711837,1.5493194,-0.5989000201,-0.3936766386,0.1175654605
0.8555307877,-1.31620681,1.591347401,-0.5980224609,-0.3819888234,0.1030467004
0.8355769639,-1.281984807,1.564488766,-0.6080513,-0.3810327053,0.08356843889
0.8084621625,-1.262086805,1.517087986,-0.6272460818,-0.361830771,0.06870374084
0.8300023787,-1.264592358,1.522768516,-0.6430402994,-0.3144815862,0.05124536529
0.8657032221,-1.249351534,1.53656484,-0.6572549343,-0.2443474978,0.00876688119
0.8992693916,-1.193943535,1.54101802,-0.6715333462,-0.1572465599,-0.04159871116
0.857156343,-1.168231878,1.549020125,-0.672401011,-0.07320731878,-0.09868596494
0.7451444133,-1.128565931,1.543336672,-0.6652205586,-0.001151950564,-0.1341483295
0.5970715747,-1.063638701,1.496807415,-0.6544731259,0.06441214681,-0.1599157453
0.4859843586,-0.9775134918,1.439151052,-0.6464784145,0.1385653317,-0.1647031605
0.4339151486,-0.9731912447,1.466400294,-0.6395201087,0.2219835222,-0.1427286118
0.3556009059,-1.132989592,1.636170585,-0.6240342259,0.2697041631,-0.1219650507
0.2375806756,-1.354960319,1.822766193,-0.6252619028,0.2410389483,-0.1444849968
-0.1928226655,-1.530869843,1.58503018,-0.6568846107,0.005889526103,-0.3139506876
-1.14344815,-1.586757735,0.8383458441,-0.7115672827,-0.4621320069,-0.7419507504
-2.027956611,-1.459315304,0.001549275269,-0.8140993714,-0.9548374414,-1.333591461
-2.835025858,-1.341432729,-0.7036842757,-0.9408418536,-1.303438783,-1.847556472
-3.819804372,-1.137432836,-1.185185644,-1.061039686,-1.436076164,-2.109991789
-4.669085451,-0.6523401652,-1.662657756,-1.103270769,-1.297096729,-2.089630842
-4.904274264,0.1170171907,-2.134332873,-1.043150783,-0.8198372126,-1.815120459
-4.403457078,0.9149538675,-2.547729257,-0.8840626478,-0.06576103717,-1.350136161
-3.526996315,1.420825414,-2.567214879,-0.6453273892,0.7347943783,-0.8033716083
-2.651996272,1.559058996,-1.986016288,-0.3939524293,1.296323776,-0.3283768892
-1.846581222,1.429020996,-1.044600384,-0.1944735795,1.525916576,-0.02268412337
-1.000122214,1.312363871,-0.1161883386,-0.06200608239,1.526157379,0.1409279853
-0.0897328779,1.30423434,0.6538697128,0.03691891581,1.418125749,0.2122432739
0.6139128193,1.280396953,1.319486416,0.165629223,1.248190165,0.2501509786
1.022733859,1.323831021,1.872884853,0.350263834,1.03266418,0.2786867619
1.194583294,1.411549344,2.253006452,0.6113116741,0.78772223,0.353400141
1.220663492,1.505994053,2.364555294,0.9378242493,0.508816421,0.4872405827
1.152002044,1.50407799,2.202500546,1.309854746,0.1932041347,0.657224834
1.027201944,1.374129714,1.797653233,1.668842554,-0.1524857134,0.8254818916
0.9076058428,1.176950899,1.101755665,1.95287931,-0.5138953328,0.9860503078
0.6647253072,0.9713479549,0.2300745378,2.123215437,-0.8680225015,1.140558124
0.4380179078,0.9212979758,-0.5916448734,2.140145063,-1.203768253,1.261092305
0.2000076086,0.905267463,-1.494993789,1.987583518,-1.526494145,1.317627192
-0.03057283292,0.8251841647,-2.335122864,1.688077569,-1.789212584,1.289687514
-0.140699095,0.5956687221,-2.751228215,1.319749951,-1.927959085,1.182828546
-0.1552063438,0.3801666073,-2.666759249,0.9549049735,-1.890422344,1.005195975
0.04845452657,0.36894934,-2.455921034,0.6469992399,-1.630591989,0.7431046367
0.2936468462,0.5188076008,-2.255562713,0.4257158637,-1.173379064,0.4160141647
0.5710340471,0.769588242,-1.944022482,0.2994847,-0.5711653233,0.07602468878
0.6819464911,1.045253149,-1.572937299,0.2697795331,0.07904683053,-0.2319666892
0.582807487,1.309939858,-1.092983745,0.3222343326,0.6540349126,-0.4742338061
0.3733294548,1.44018361,-0.6069494101,0.4293296337,1.082293391,-0.5946621895
0.1635281819,1.41677234,-0.1699272353,0.5507966876,1.325187683,-0.580258131
0.1012719245,1.379989546,0.1395519708,0.6653253436,1.398111701,-0.4693090022
0.1117126545,1.343520349,0.3241197259,0.7684625387,1.331228614,-0.3209249675
0.2242413016,1.274176763,0.3945139894,0.8652348518,1.162454009,-0.144581899
0.3420978657,1.173706803,0.375538363,0.9596068263,0.9262753725,0.04821423069
0.4771417114,1.045854038,0.355472311,1.064668775,0.6424226165,0.2278527021
0.5579559543,0.8676040873,0.364002239,1.179038763,0.3468645215,0.391902566
0.6568880377,0.7150678395,0.2318316106,1.284173965,0.09371588379,0.5260694027
0.8009142313,0.6474407027,-0.07535013228,1.3468045,-0.08771587163,0.6175625324
0.866622675,0.5464186613,-0.421494643,1.369632363,-0.2035087794,0.6583682895
0.8757996687,0.3960071505,-0.7029317038,1.347371817,-0.2644113004,0.6408022046
0.8763117099,0.2511345692,-0.9657792148,1.287944436,-0.2780919373,0.5657716393
0.8398919045,0.1271186057,-1.244367608,1.210220933,-0.2483216226,0.4524106383
0.7174398293,0.03945581208,-1.500909589,1.118459821,-0.2001911104,0.3312802315
0.5209387676,-0.0845139742,-1.67528416,1.016113758,-0.1375814825,0.2129257023
0.2996808657,-0.1754208643,-1.844753422,0.9096542001,-0.06615763903,0.1022234261
0.1054091705,-0.242944833,-1.968500213,0.8106267452,0.02085406333,0.008522087708
-0.0539694906,-0.2741284913,-1.994894884,0.7326896191,0.1088339835,-0.05385500193
-0.2008048964,-0.2972974777,-1.944785868,0.671395123,0.1901598424,-0.08392101526
-0.2842027261,-0.2877425906,-1.877369159,0.6214752197,0.26249367,-0.08028074354
-0.3127876,-0.2525426824,-1.807632483,0.5860642195,0.3257160485,-0.04030503333
-0.287819163,-0.2080290025,-1.779052285,0.5544356704,0.3646352291,0.03945184872
-0.1815337942,-0.1407332896,-1.719801639,0.5264547467,0.3714293242,0.1203371659
-0.005519640204,-0.105597971,-1.643778137,0.4901202321,0.3396964371,0.1744464785
0.1647071626,-0.130263918,-1.553139251,0.4530873895,0.3033418953,0.2098007351
0.3740495857,-0.1241448506,-1.52989603,0.419596523,0.2850931287,0.2302980274
0.5647054286,-0.06901128464,-1.555418009,0.3891792297,0.272954613,0.2271755487
0.7035474976,-0.007905950819,-1.55722009,0.3617042005,0.2557042539,0.2044697106
0.8472691553,0.01908902361,-1.540568815,0.3360879421,0.2415939569,0.1753542423
0.9510931024,0.05570581287,-1.537683907,0.3074229956,0.2252251059,0.1459279209
1.0097791,0.08996960926,-1.552021645,0.2785540223,0.2085886896,0.1248503998
1.076935405,0.09749415955,-1.544199281,0.2476754785,0.1840689629,0.1102826446
1.113276884,0.1139168866,-1.51144998,0.2170173228,0.156930089,0.09444553405
1.151268469,0.1350917765,-1.475456584,0.1911857277,0.1221316308,0.07857681811
1.180823649,0.1516331615,-1.489889598,0.1764110476,0.09799806029,0.05483352393
1.198490239,0.1657069873,-1.504926132,0.1657568067,0.08558639884,0.02193149924
1.192870645,0.1648550466,-1.493497852,0.1620395631,0.08371792734,-0.0186931584
1.137365031,0.1543327758,-1.496734057,0.1615165174,0.08293602616,-0.06154075265
1.050206388,0.1336769413,-1.526741365,0.1641230583,0.08525051177,-0.08515503258
0.9606190556,0.1169219136,-1.606513113,0.1589245796,0.09220536053,-0.09337620437
0.8975450521,0.09305471579,-1.721424856,0.1524419338,0.110997349,-0.0854947716
0.8322627248,-0.02737140653,-1.703844776,0.1426604092,0.1152035445,-0.07660274208
0.7861901249,-0.1294403266,-1.656272293,0.1288971603,0.1052766964,-0.05871288478
0.7842974431,-0.2322454521,-1.650792985,0.1125016734,0.0904341042,-0.04191819206
0.798368054,-0.3098065384,-1.653203261,0.1003636271,0.087447837,-0.01969851181
0.8395499592,-0.3692790103,-1.690643641,0.07312721014,0.1018302366,-0.01011139713
0.8699351606,-0.4956888832,-1.70117088,0.04531536996,0.1157538071,-0.007368139457
0.8499433429,-0.6158528475,-1.684056956,0.01557132322,0.1208580211,-0.009350862354
0.8651315597,-0.6941349416,-1.663985059,-0.01741516963,0.1189755797,-0.0166318398
0.8179793479,-0.7764443915,-1.631846584,-0.05199258775,0.0957916975,-0.02877319232
0.7582178299,-0.8647831847,-1.616298302,-0.08517022431,0.06063470617,-0.04208545387
0.6698720225,-0.9566104045,-1.637135923,-0.121412918,0.02255709283,-0.0415485613
0.53361997,-1.033467726,-1.703779309,-0.1602929533,-0.009516675025,-0.02876587771
0.4151028961,-1.096554297,-1.750178365,-0.2033469379,-0.02683814056,-0.006429146044
0.3462234212,-1.156125846,-1.744161881,-0.2463122457,-0.0226868093,0.02592890337
0.30322716,-1.216950609,-1.749369971,-0.2855249047,0.01670853235,0.06911952049
0.2679401581,-1.251993281,-1.755188594,-0.3180486262,0.07820299268,0.1181927621
0.2723544674,-1.29103642,-1.713727287,-0.3454506993,0.1361251473,0.1601178497
0.2536357384,-1.344437171,-1.675342319,-0.3672710657,0.1726046801,0.1924584359
0.2697515914,-1.389534789,-1.637503879,-0.3777114451,0.1872129291,0.2217835635
0.2811667194,-1.414701086,-1.628227517,-0.3928902149,0.1873001605,0.2572048008
0.2776017204,-1.415404266,-1.626446187,-0.4182163477,0.1900525242,0.2985833883
0.2958528319,-1.43224668,-1.633240669,-0.4340590835,0.2087348253,0.3493437767
0.2779021646,-1.518330388,-1.57574505,-0.4248006046,0.2175797224,0.4036040604
0.2167570833,-1.63863376,-1.486110956,-0.3948567808,0.1847283989,0.4438128769
0.06145955409,-1.799787322,-1.463370132,-0.3638192415,0.07875589281,0.4635159969
-0.3857639889,-1.858039604,-1.60134857,-0.361836046,-0.1894074976,0.4173210859
-1.14713473,-1.763224601,-1.830651247,-0.421331048,-0.6150400043,0.2425705642
-2.000618522,-1.574417309,-2.051484786,-0.543330729,-1.07761538,-0.04802447185
-2.869326771,-1.271857673,-2.201210652,-0.6925538182,-1.423677087,-0.3249711096
-3.657344696,-0.7578992655,-2.283102169,-0.8261368871,-1.559276462,-0.4669902027
-3.684078974,-0.7738160888,-2.181125019,-0.9127034545,-1.469667792,-0.4444268346
-4.255111267,-0.04729980357,-2.231348893,-0.9446241856,-1.161812544,-0.2869950533
-4.407802413,0.7723682281,-2.1596491,-0.9350578785,-0.6750391722,-0.03675270081
-3.977227223,1.538274567,-1.997048262,-0.8892214298,-0.1269217134,0.2325188369
-3.354814286,2.047069307,-1.762851968,-0.8102778792,0.3585845232,0.4583788514
-2.550437932,2.207450131,-1.324064245,-0.7430537343,0.6887626648,0.5909602046
-1.640357808,2.258952355,-0.8394827392,-0.7146881223,0.875983417,0.6292607188
-0.7111357607,2.341707795,-0.4330801591,-0.7264853716,0.9597151875,0.6156231761
0.2115355493,2.422490766,-0.1650754114,-0.7504517436,0.9561246634,0.5807509422
1.017253966,2.413307927,0.1296092535,-0.769562006,0.8568950891,0.5369695425
1.587331151,2.344056112,0.3709744161,-0.7792774439,0.6675584316,0.4824817479
1.95224349,2.270449316,0.5696006533,-0.7759457231,0.4093290567,0.4289790094
2.194913014,2.245978599,0.7227789984,-0.7661088109,0.1087649465,0.3761330843
2.238674998,2.224975559,0.7852743253,-0.7646462917,-0.1864500344,0.3269081116
2.184331414,2.169004958,0.742129011,-0.7722147107,-0.4476534128,0.2906550467
2.108040786,2.109974676,0.5912839312,-0.8128922582,-0.649371624,0.2492778003
2.067344034,2.13561999,0.3922077582,-0.880887568,-0.8014051318,0.1864975095
1.963871969,2.189648225,0.2022109638,-0.9781376719,-0.8932503462,0.08263334632
1.817216011,2.199880281,0.07098492281,-1.096436143,-0.932641387,-0.05499295518
1.676824375,2.213705685,-0.01335296418,-1.220651031,-0.927685976,-0.2193255126
1.504327289,2.251087028,-0.07581570396,-1.331498146,-0.915220499,-0.4050133526
1.252205462,2.286648171,-0.07957111097,-1.420564532,-0.9083389044,-0.5925228
0.9127999043,2.254294008,0.02749503291,-1.48976624,-0.937077105,-0.762650609
0.4887807113,2.187119583,0.2171910908,-1.527604222,-1.004706621,-0.910284102
-0.03209142079,2.154348363,0.3003177023,-1.547146201,-1.091514468,-1.021528602
-0.5975169803,2.096223507,0.3162599523,-1.551059723,-1.175893068,-1.09212029
-1.173157644,2.021603442,0.2894695606,-1.545620799,-1.229223371,-1.104411006
-1.691720915,1.972570239,0.2458268182,-1.536361337,-1.205160975,-1.051472306
-2.060118174,1.913830465,0.1903548141,-1.52096808,-1.103712916,-0.9547816515
-2.242339951,1.883820235,0.08760434143,-1.499392033,-0.935054481,-0.851249516
-2.243186338,1.884180008,-0.003255494665,-1.484601617,-0.7120922208,-0.7586228848
-2.071738469,1.843898851,-0.08941665155,-1.478960276,-0.4801262617,-0.6987313032
-1.819489801,1.727571981,-0.05355740266,-1.473424435,-0.2923617065,-0.6851038933
-1.553529419,1.564576883,0.1502794088,-1.46589613,-0.1689881384,-0.6992857456
-1.23139999,1.408355224,0.4168170066,-1.449594736,-0.08818275481,-0.7255439758
-0.837180892,1.242391924,0.6036515376,-1.416538119,-0.05484685674,-0.7474913597
-0.5020364987,1.119975213,0.7638781938,-1.38083744,-0.06842072308,-0.7576105595
-0.282384863,0.9940782576,0.9473308272,-1.333323717,-0.1155926883,-0.7503771186
-0.08464286128,0.8437257836,1.102197125,-1.275320053,-0.1753098071,-0.7347840071
0.0771744251,0.6743517982,1.241250645,-1.212110758,-0.2462622821,-0.6934533715
0.1893897684,0.5390887568,1.320789169,-1.142858624,-0.3127022684,-0.6397494078
0.2939671642,0.4226227702,1.34403765,-1.081261635,-0.3831669986,-0.5832805634
0.4009259022,0.2889242016,1.380017019,-1.022636414,-0.4634695649,-0.5325185657
0.459999438,0.1237266252,1.384982824,-0.96264112,-0.5541195869,-0.4957117736
0.4437357009,-0.05902618946,1.362370741,-0.9119340181,-0.6523007154,-0.4759966433
0.3530249179,-0.2211813295,1.332850194,-0.8672613502,-0.7492744327,-0.4680474997
0.259846868,-0.407829398,1.274758801,-0.8305635452,-0.8262930512,-0.4698954821
0.1415302851,-0.5746373323,1.147431083,-0.8068124652,-0.8779963255,-0.4703452289
0.004846855509,-0.7178960486,0.9849883577,-0.7963424921,-0.9101675749,-0.4655278325
-0.1395417417,-0.8345271626,0.8440244743,-0.7928420305,-0.9230250716,-0.4651055038
-0.3055804451,-0.9220783125,0.6907759865,-0.8004504442,-0.9171168208,-0.4729775488
-0.3998895449,-1.015817796,0.541432105,-0.824174881,-0.8768904805,-0.4969164431
-0.487383704,-1.100865146,0.4006213663,-0.8642174006,-0.8083146214,-0.5208497047
-0.5650257466,-1.181950023,0.3431558503,-0.9097086191,-0.6928341389,-0.5384100676
-0.5917828206,-1.24375386,0.328088045,-0.9521157742,-0.5465198159,-0.5499367118
-0.5597796626,-1.271378365,0.3473945108,-0.9854456782,-0.3837058246,-0.5578590035
-0.4720592936,-1.235028702,0.438392294,-0.9941286445,-0.2438698858,-0.5581895113
-0.3658662793,-1.211255612,0.5964353226,-0.9859854579,-0.134100616,-0.5510812402
-0.2190238592,-1.195655892,0.7949889329,-0.9695857167,-0.07966800034,-0.5369387865
-0.06778408094,-1.146185174,0.9961799061,-0.9455966949,-0.08342612535,-0.520191133
-0.02339373507,-1.134759525,1.178048339,-0.9205344319,-0.1211820245,-0.4907512367
0.0337099619,-1.1277514,1.37925714,-0.8839549422,-0.1872601211,-0.4508708417
0.04317512486,-1.092841414,1.517167481,-0.83735919,-0.242590487,-0.407677561
0.06866787803,-1.05625765,1.60163937,-0.7767894268,-0.2827988565,-0.3596530557
0.09612930093,-0.9977271355,1.63012809,-0.7129135132,-0.3073611856,-0.3141577542
0.07975742733,-0.9686766899,1.595753234,-0.6495857239,-0.3101240396,-0.2669362724
0.08236731756,-0.9727163206,1.533829278,-0.5934814215,-0.311984241,-0.2305942327
0.05265256278,-0.9786392809,1.461032629,-0.5504956245,-0.3097558916,-0.1746591479
-0.08561258309,-1.031672367,1.236413142,-0.5086581707,-0.3105969131,-0.1038752571
-0.1015875663,-1.06834644,1.14196931,-0.4735229909,-0.308077991,-0.04441735148
-0.07032149046,-1.107946337,1.086294184,-0.4429182112,-0.2943062484,0.005521448329
-0.01310439624,-1.142048805,0.9947475352,-0.416138947,-0.2746529877,0.0363509804
-0.01137362693,-1.150160215,0.8709653804,-0.3951407075,-0.2502163649,0.04732640088
0.05566051242,-1.192010813,0.7932990802,-0.3808579445,-0.2224911749,0.04995394498
0.1710410418,-1.192718085,0.7587257794,-0.3668209612,-0.187381655,0.04957098141
0.2202010863,-1.193476794,0.7279764209,-0.3539229929,-0.1627977341,0.04393135756
0.2240507474,-1.206906185,0.7115121928,-0.3433156312,-0.1556370258,0.0455297865
0.2081558437,-1.221295652,0.7065504788,-0.3257124126,-0.1647968888,0.0586656332
0.2195499289,-1.196176701,0.6432394516,-0.3088690042,-0.1673197001,0.07377161086
0.2223755077,-1.194524258,0.5427227294,-0.2877844572,-0.1722959131,0.09675980359
0.2468506083,-1.193453998,0.4594727837,-0.2699332833,-0.1675088853,0.1160165891
0.3113274644,-1.164631224,0.3711228846,-0.2736535668,-0.1465059817,0.1269421428
0.3220470113,-1.180442833,0.3494564117,-0.2902442813,-0.1293666661,0.09974274784
0.273693607,-1.250191784,0.4089592788,-0.3009975851,-0.1297935843,0.02397741377
0.06967734734,-1.402377903,0.4590019514,-0.2958408892,-0.2053586543,-0.1101239324
-0.4736345801,-1.581658658,0.3387891795,-0.2772027552,-0.4358674586,-0.3418355584
-1.31238316,-1.647754055,0.04845072718,-0.2665181756,-0.7779329419,-0.6709580421
-2.219715446,-1.609077411,-0.2750868149,-0.2773250043,-1.100123286,-0.9940761924
-3.050745999,-1.439294845,-0.6322139074,-0.2994923592,-1.314444423,-1.165690064
-3.821977624,-1.035964804,-1.088007418,-0.3149651885,-1.397785783,-1.170833707
-4.289033995,-0.2773506682,-1.727810758,-0.3032464683,-1.335303187,-1.044321775
-4.362182818,0.6618170186,-2.411466683,-0.2786985338,-1.139457464,-0.8540375829
-4.067634639,1.383722011,-2.805530591,-0.2593069971,-0.8307893872,-0.6664253473
-3.572401975,1.725682514,-2.63519419,-0.2467405349,-0.5095798969,-0.5216069818
-3.080228699,1.836684097,-1.952011727,-0.22605443,-0.257207334,-0.4338845909
-2.389498013,1.92502026,-1.069987485,-0.1794754714,-0.0196778588,-0.3827630579
-1.525916605,2.041743729,-0.2995525632,-0.0885900557,0.2492382973,-0.3268675804
-0.7180716975,2.070234787,0.3938558177,0.03835046291,0.5076532364,-0.2407451123
-0.1237356853,2.062893776,1.020779218,0.1871785522,0.7355743051,-0.1017371714
0.3539508006,2.037062585,1.482030117,0.3614032865,0.8983631134,0.1234199628
0.8144248703,2.065795051,1.527573432,0.5552771688,0.9780755043,0.4142738879
1.209758067,2.093180778,1.237199032,0.732870996,0.9457085133,0.7327443957
1.50477211,1.993611858,0.8514706986,0.8771424294,0.8059943318,1.032507658
1.856368456,1.763289483,0.4493868585,0.9608780742,0.5882308483,1.25856185
2.189114556,1.504902166,0.08016191647,0.95225209,0.3160225153,1.377272248
2.525374802,1.314794313,-0.2819759899,0.8421518207,0.02654390782,1.381498814
2.852156441,1.095547751,-0.6189461373,0.6560741067,-0.2292657644,1.276372313
2.99761179,0.9589362171,-0.8861793162,0.4103072584,-0.4633769393,1.050744176
2.893019197,0.9248582987,-1.094246897,0.1479305029,-0.6652139425,0.7258404493
2.765805606,0.845872148,-1.228214346,-0.08968699723,-0.7920933366,0.3350083828
2.521290163,0.8481053138,-1.357088271,-0.2990487218,-0.8218808174,-0.09592088312
2.127524654,0.908230989,-1.495690393,-0.4820742309,-0.7659052014,-0.5175439119
1.615331503,0.9675032622,-1.564746102,-0.6440101266,-0.6454690695,-0.9022932053
1.089962059,1.061743388,-1.582441333,-0.7779111266,-0.4791586101,-1.234744668
0.5614473036,1.168005376,-1.497578399,-0.8820319772,-0.2889039814,-1.482247949
-0.007530980027,1.252213353,-1.25360247,-0.9319401383,-0.08615674078,-1.600095272
-0.458225414,1.352070443,-0.9438038221,-0.9176986217,0.1458173692,-1.559860826
-0.6991039622,1.433182792,-0.5934089605,-0.8345953822,0.3872172534,-1.406477809
-0.8121440659,1.458380069,-0.2596384859,-0.6888523102,0.5935690403,-1.191680551
-0.7767647095,1.332270933,0.09729425306,-0.4959442317,0.7574347258,-0.9461574554
-0.5336813448,1.106284541,0.4414434983,-0.290134877,0.8490663767,-0.7003948092
-0.1772194382,0.878663826,0.6322799584,-0.09698525816,0.8533935547,-0.4904123247
0.1656172632,0.615958646,0.6678089524,0.06493519992,0.7802900672,-0.3355180621
0.4995031808,0.317839915,0.5808218661,0.190688327,0.6617029905,-0.2128438652
0.7618295907,0.06741963154,0.4299436147,0.2773182988,0.5024363399,-0.11619322
0.9067851741,-0.0876569484,0.219285725,0.3173190653,0.3104393184,-0.03978135809
0.9366454748,-0.2740957581,0.01441986276,0.3264041841,0.1065644771,0.01215693913
0.9284715207,-0.4392350285,-0.1405459503,0.3131391406,-0.08370357007,0.0365867354
0.9139484898,-0.5604445563,-0.3023269963,0.2981841564,-0.2116548717,0.0331880115
0.8365022621,-0.6341144804,-0.5541854959,0.2728340328,-0.2732603848,0.0154555412
0.7118377715,-0.6928188905,-0.8471233171,0.2388214767,-0.2569535971,-0.02432995476
0.5990840835,-0.7240865739,-1.173241523,0.1828186065,-0.1802531481,-0.06993666291
0.4844178399,-0.7004955626,-1.430325356,0.09499315917,-0.077422373,-0.09392508864
0.3566588905,-0.7136139874,-1.512958631,-0.016995335,0.01875720359,-0.09891869873
0.2394780337,-0.7324838153,-1.496225815,-0.146587953,0.08499667794,-0.1053566262
0.1884790833,-0.7400611187,-1.394701962,-0.264071852,0.1081594601,-0.1222896725
0.1383943252,-0.7018539915,-1.282255148,-0.3532201052,0.09764663875,-0.1645564437
0.04047755634,-0.6414180814,-1.202025719,-0.4126396179,0.05203606188,-0.2168466747
-0.167547939,-0.5870458552,-1.211172026,-0.4608811736,-0.01980057359,-0.2826464474
-0.4406213683,-0.5439293287,-1.240549803,-0.5051752329,-0.08818357438,-0.3398299813
-0.757659027,-0.5287421348,-1.227268297,-0.5350819826,-0.1142516583,-0.3666307032
-1.022776529,-0.4744470655,-1.286519527,-0.5481838584,-0.08724592626,-0.3453777432
-1.156037583,-0.3646332304,-1.355658238,-0.5454551578,-0.007440045476,-0.2801041901
-1.175542494,-0.2732901408,-1.395905785,-0.5319588184,0.1079408601,-0.1812520772
-1.075502157,-0.2239431954,-1.418233352,-0.5123691559,0.2461333573,-0.05140751973
-0.850626649,-0.2381900397,-1.392066061,-0.490334928,0.354573518,0.06996204704
-0.5673042129,-0.2956068943,-1.280843528,-0.4816564918,0.4031693041,0.1579606086
-0.1874795509,-0.3956882938,-1.155742984,-0.4811349511,0.3934308887,0.1957321018
0.2137871276,-0.499634406,-1.056748064,-0.4854314327,0.3487265408,0.1922923625
0.5104752412,-0.562947479,-0.9731175949,-0.4857554734,0.2971378267,0.1649239212
0.7385773099,-0.6115381992,-0.898464505,-0.4844830334,0.2474589497,0.1234449297
0.90506025,-0.6850467952,-0.8589061093,-0.4767811298,0.21220918,0.0711781159
1.023082818,-0.7355830965,-0.8425359893,-0.4638453722,0.2041496485,0.0198390279
1.070975619,-0.7494920871,-0.8329930849,-0.4455928206,0.2118528932,-0.02304860577
1.017648518,-0.7877791477,-0.8106967897,-0.423015058,0.2181091905,-0.04447187111
0.9370587318,-0.8315817568,-0.8451778821,-0.3973600268,0.2266775817,-0.03599902615
0.8649579567,-0.8489347504,-0.9216394827,-0.3763490319,0.2269894332,-0.001760360319
0.7992115191,-0.8959329407,-0.9570559563,-0.3627913296,0.2101735771,0.05523649603
0.7573200043,-0.9611679217,-0.9510375728,-0.3612096906,0.1699867398,0.1143946201
0.7505985871,-1.010907812,-0.9104144705,-0.3652800024,0.1232941896,0.1524024606
0.7812830637,-1.066123503,-0.9008788726,-0.3653995693,0.07184857875,0.1677129716
0.7694961798,-1.108537873,-0.8918852727,-0.3720368147,0.03157080337,0.1651506871
0.723012661,-1.141513383,-0.8625400819,-0.3683627248,0.01337422431,0.1520247608
0.6340881769,-1.153335338,-0.8233760924,-0.3533436358,0.01041179709,0.1449019015
0.5226537548,-1.12956634,-0.8165997301,-0.3287605345,0.01826040074,0.1331301928
0.3770172034,-1.139215627,-0.8123768517,-0.2942509353,0.02385855839,0.1290792376
0.22712241,-1.16589233,-0.8194117188,-0.2629646659,0.03285924345,0.1284230351
0.09700374568,-1.159601705,-0.874673295,-0.2380787283,0.04891508818,0.1407922804
-0.04897767366,-1.16135264,-0.872532922,-0.2105653435,0.07078390568,0.17250067
-0.1780453676,-1.195953706,-0.8606073603,-0.167286247,0.09935415536,0.2205003202
-0.260782103,-1.18518652,-0.8926442744,-0.1137931943,0.1414390206,0.2782637477
-0.3528390399,-1.180273614,-0.872172272,-0.04982667416,0.1605525166,0.3367530704
-0.4640688794,-1.203774316,-0.7966460525,0.01219275594,0.1474779993,0.3907246888
-0.5488315676,-1.229803661,-0.7946896577,0.07075830549,0.1160470396,0.4333776534
-0.6376847401,-1.244917351,-0.7498949688,0.1162288487,0.08083711565,0.4695374966
-0.6846177562,-1.213573241,-0.6817141437,0.1480475515,0.04035705701,0.490138799
-0.8093143954,-1.150415944,-0.6359998557,0.1646217257,-0.04109412432,0.4835925102
-1.186205342,-0.993588136,-0.6900342283,0.1469079107,-0.2407848835,0.4206338227
-1.7940555,-0.8233402904,-0.8291844864,0.1132079884,-0.5429879427,0.2593019307
-2.47520938,-0.656901774,-1.001562476,0.06748628616,-0.8389683962,0.06355705857
-3.18887086,-0.3438660444,-1.239767567,-0.00602574693,-1.049884439,-0.08443027735
-3.805621533,0.05879062714,-1.44391549,-0.09624374658,-1.108438134,-0.113562569
-4.125255053,0.4727247718,-1.50128456,-0.1711251885,-0.9759643674,-0.02690144442
-4.022620024,0.8956190524,-1.365220724,-0.2078947574,-0.6709718704,0.1327312291
-3.644204059,1.23535165,-1.125849365,-0.2029101104,-0.2826478481,0.3096506
-3.06548238,1.43030899,-0.8282476439,-0.157336846,0.1078711525,0.4507528245
-2.247899923,1.584024803,-0.4999120539,-0.1226321235,0.4259149134,0.501198709
-1.365592187,1.741153931,-0.1504296309,-0.1136787683,0.645735085,0.4826703966
-0.5991548107,1.835885056,0.2073416047,-0.1173528656,0.7835429907,0.4500075281
0.1246463704,1.905916623,0.5104262875,-0.1212833226,0.8511520624,0.4271159172
0.7089110704,1.916859458,0.8394083588,-0.1075131819,0.861096561,0.4173040092
1.243253509,1.915033996,1.167779459,-0.07847685367,0.8278375268,0.4155963361
1.658881306,1.913597241,1.436630886,-0.04304775968,0.7668895125,0.4169287086
2.006378985,1.892850806,1.621220269,0.0002152912784,0.6878929734,0.3941544294
2.238207965,1.819632425,1.729952738,0.05761813,0.5877229571,0.3595903218
2.335397004,1.725089516,1.775418458,0.1207246184,0.4724870026,0.3218527138
2.395512158,1.627323554,1.797832389,0.1759013236,0.339295119,0.2983806729
2.389689151,1.505825418,1.780261953,0.2186437845,0.204944998,0.2788878977
2.355454873,1.390841195,1.747786501,0.2373841852,0.05305159464,0.2516331077
2.222633964,1.320245271,1.674769926,0.2306516618,-0.1062680632,0.2141488343
2.048287451,1.27047937,1.524455885,0.1980583072,-0.267046839,0.1649474651
1.850078416,1.152286706,1.46755604,0.1431669146,-0.4358089268,0.07671820372
1.473392052,1.02629652,1.477609962,0.08218158782,-0.5852455497,-0.03859267384
1.077319435,0.9551397474,1.432140881,0.02909845486,-0.6916297674,-0.1595989317
0.649700172,0.9117775755,1.296842622,-0.02220414579,-0.7452056408,-0.2703568637
0.1924468179,0.8870815257,1.265786828,-0.06443880498,-0.7807216644,-0.3667566776
-0.3430313471,0.8578075004,1.293894879,-0.09106907994,-0.7978141308,-0.4506225586
-0.8719587754,0.8723363765,1.210744448,-0.1124541834,-0.7905066013,-0.494092375
-1.359435418,0.9123089059,1.004434816,-0.1390008479,-0.7361203432,-0.4810870886
-1.752375582,0.9285594913,0.851306448,-0.1713554263,-0.6273600459,-0.4127290249
-1.96076465,0.9102747698,0.7833829586,-0.211815238,-0.4651437104,-0.3121656477
-1.99705703,0.884231397,0.7784566081,-0.2482654154,-0.2708315253,-0.2123142034
-1.929512603,0.8402277123,0.7824640901,-0.2870264053,-0.06442962587,-0.1405476034
-1.690753531,0.7901751029,0.7860410719,-0.3144509792,0.1454100311,-0.1175757647
-1.327524615,0.7549339859,0.8547317462,-0.3433944583,0.322996825,-0.1508636773
-0.9737456637,0.7077402731,0.9690575059,-0.3712051511,0.4459865987,-0.2274951488
-0.6708019968,0.6424094305,1.083799445,-0.3949898481,0.5298607349,-0.315903306
-0.4156809883,0.6087447691,1.187969283,-0.413074851,0.5791268349,-0.3842048645
-0.2650830151,0.6067699619,1.264950377,-0.4124183655,0.5963543057,-0.4170349836
-0.1871042878,0.5894429795,1.349264445,-0.3943390846,0.573841095,-0.4118384123
-0.1643202091,0.5514452573,1.400959707,-0.3631987572,0.511987865,-0.3803345561
-0.1810018793,0.5190127679,1.421873316,-0.3132191896,0.4235891104,-0.3234466612
-0.185440154,0.4793120412,1.394132638,-0.2503089011,0.341083318,-0.259950757
-0.1656634404,0.4140805674,1.315977093,-0.1930550337,0.2620705664,-0.1904746145
-0.158350487,0.3292264014,1.204671704,-0.1412754655,0.2119384408,-0.1234710738
-0.157656075,0.2479544779,1.034786116,-0.1061159223,0.1880998611,-0.07473615557
-0.1053249993,0.1582742069,0.9126185564,-0.07079548389,0.1903912425,-0.04782598093
-0.05104863471,0.0532780012,0.7741491201,-0.03775532171,0.2005370557,-0.05763273686
-0.03896130656,-0.07105097378,0.660538523,-0.002487345831,0.2008811384,-0.08463212848
-0.07663315783,-0.1864899553,0.5408293168,0.02608458139,0.195040971,-0.1157370582
-0.1415758779,-0.2884042694,0.4050923743,0.0503353253,0.1855798364,-0.1367267668
-0.2008060655,-0.403370665,0.2973753652,0.06516312808,0.1884274036,-0.1605193764
-0.2628898889,-0.5431389089,0.2052420021,0.0836308226,0.1994600743,-0.1859014332
-0.3561965337,-0.5924067977,0.05584332164,0.1126437485,0.2319756448,-0.1946730316
-0.4618406819,-0.6014218788,-0.1219116847,0.1458536237,0.2710439563,-0.1760884225
-0.5981254676,-0.7159545592,-0.1216889819,0.1724108756,0.2963480651,-0.1264478862
-0.6471873124,-0.8169178562,-0.08499839672,0.1832771003,0.3104958534,-0.05632685497
-0.6123872172,-0.8620435306,-0.1174351238,0.1831215173,0.3059838414,0.01668810658
-0.5475041184,-0.9450786644,-0.1090966268,0.1814591736,0.2891867459,0.09020333737
-0.4181880027,-1.076212935,-0.03258855665,0.1794390529,0.2627935708,0.159589842
-0.254066531,-1.168548689,0.07986556388,0.1787985712,0.2284896672,0.2107020319
-0.05445405924,-1.221254151,0.1925843267,0.186764136,0.2082274705,0.2378924489
0.1892383773,-1.273214932,0.2954600331,0.1990258545,0.1937806159,0.2397918105
0.3831657891,-1.337208097,0.3782220491,0.2179595828,0.1797510087,0.2378549129
0.5396849691,-1.460895267,0.4038678009,0.2440814674,0.1511768997,0.2606696784
0.632156332,-1.443647779,0.3974468279,0.2638347149,0.1148175448,0.2739236057
0.7581009255,-1.445509189,0.4389490511,0.2913587391,0.08147902787,0.2898535728
0.8582564132,-1.530436713,0.5039589912,0.3156295717,0.04612266645,0.3050831258
0.9172750039,-1.574312095,0.5873378239,0.3392384946,0.01183207333,0.3186516762
0.945195861,-1.560254343,0.6326162046,0.3513380587,-0.02776042931,0.3250234723
0.9475263498,-1.549366454,0.6700625766,0.3507830501,-0.069835715,0.3225286007
0.9604162265,-1.571675024,0.7226391515,0.3417068422,-0.1117012575,0.3068592846
0.8714584246,-1.578876918,0.7646829343,0.3310198486,-0.1544181108,0.2837843299
0.7210211949,-1.529924087,0.8016577432,0.319993794,-0.1956616938,0.2757499516
0.5366998158,-1.452271523,0.8628490017,0.3107275963,-0.2428305447,0.2854092419
0.3132861972,-1.418050981,0.9449448089,0.3103956282,-0.3161175847,0.3010410964
0.07759294277,-1.381664201,0.9855074131,0.3064232469,-0.3957317173,0.327745676
-0.09975684378,-1.309865039,0.9287047449,0.3034889698,-0.4757972956,0.3586899638
-0.3274789732,-1.192214812,0.8405646892,0.2972425222,-0.5511314273,0.3947334588
-0.5378513239,-1.08768067,0.8103428617,0.3025791049,-0.609803617,0.4310249686
-0.7472954539,-0.9676146136,0.7239454118,0.3210209906,-0.626512289,0.4729082286
-0.8605226046,-0.8458014208,0.6422076243,0.3605522513,-0.5996864438,0.5142621398
-0.940722515,-0.764748693,0.6788952869,0.4053103924,-0.5247392058,0.5650619268
-0.9348317034,-0.7095774254,0.7460533449,0.4498884976,-0.4116590619,0.6143018603
-0.8528250358,-0.6574377806,0.7944109869,0.4805025756,-0.2821907997,0.6477290988
-0.6835439895,-0.6634568947,0.8661866217,0.5017089248,-0.1510550231,0.632171154
-0.5537023885,-0.7387219791,0.9751526079,0.5056075454,-0.0819824785,0.5379847288
-0.6574585311,-0.8054822699,1.069392734,0.501726687,-0.1235168204,0.32785815
-1.088145365,-0.8477104693,1.060964221,0.4971923232,-0.2963352203,0.04103543237
-1.803659195,-0.8746034447,0.9662634912,0.5028743744,-0.5269472599,-0.2575714886
-2.554043847,-0.7488163798,0.7388897368,0.517506063,-0.6934192777,-0.4595650733
-3.118824679,-0.4392486186,0.4695750756,0.5594300628,-0.7655350566,-0.5387652516
-3.656495386,-0.08063245659,0.3611655542,0.6184629798,-0.7369295359,-0.4913090169
-3.902639891,0.3892024389,0.1399371707,0.6827284098,-0.5838012695,-0.3051620722
-3.751767777,0.9192764069,-0.1034460537,0.7504382133,-0.3222620487,-0.01005505119
-3.33382352,1.385320386,-0.2373825227,0.8114305139,-0.006662073079,0.3261786997
-2.618883107,1.658381248,-0.1862500091,0.8628428578,0.2880537212,0.6033782959
-1.771813858,1.756862957,0.05640986949,0.8946675658,0.514505446,0.788112998
-0.8425877195,1.764037963,0.4807964345,0.9121360183,0.6663048267,0.8883517385
0.09658055183,1.793569178,0.9053349753,0.9320881963,0.7773400545,0.9420726299
0.8995511312,1.83873723,1.302661976,0.9658775926,0.8294588923,0.9967723489
1.565614994,1.87873431,1.639197239,1.021901727,0.8415619731,1.020039678
2.056270267,1.904749333,1.903793932,1.106626391,0.804656446,1.005635381
2.347142972,1.892587186,2.095958718,1.219064832,0.7270846367,0.9676660895
2.521874685,1.825481443,2.165206442,1.339833379,0.6278483272,0.9181944132
2.576292504,1.729067188,2.114064284,1.444294333,0.4968071282,0.8808121681
2.462008537,1.590057361,2.011758925,1.518626332,0.3393194973,0.8590013981
2.239734737,1.438408125,1.841632075,1.561193347,0.1641919017,0.8478209972
1.980630796,1.300760819,1.531592312,1.565009713,-0.01402869821,0.8097170591
1.628639313,1.176902676,1.122024254,1.525155663,-0.1916487515,0.7392095327
1.161824934,1.026541434,0.7412859843,1.436669707,-0.3797137439,0.6218091249
0.4739209958,0.8911337237,0.3558592645,1.30771327,-0.5886187553,0.4620302618
-0.4042793043,0.7904793466,0.05938479364,1.169644594,-0.7797484994,0.2752526402
-1.141171438,0.75452862,-0.2483554599,1.033719897,-0.8511493802,0.1142740175
-1.584019834,0.7809127691,-0.5038225053,0.9011005759,-0.7678845525,0.01217534766
-1.89332836,0.8271586797,-0.5831161145,0.7727001905,-0.5444946289,-0.03180208802
-2.057033652,0.9100093968,-0.5342676202,0.6512618661,-0.2107576728,-0.03200288862
-2.00928932,1.030861051,-0.3852162919,0.5569000244,0.199721992,-0.009060494602
-1.751188419,1.163918691,-0.1246837798,0.5035273433,0.644759655,0.010047419
-1.320749422,1.239562838,0.1924514941,0.4988544583,1.065395832,0.00919713825
-0.8743348569,1.203386194,0.5099731369,0.5365909338,1.357536077,-0.04570152983
-0.4650602285,1.125230941,0.8011170604,0.5878503919,1.504153132,-0.1303409189
-0.1694265923,1.020618474,1.072042664,0.6347808838,1.52369833,-0.1993610114
0.03096738519,0.9600383331,1.23299252,0.678090632,1.435460091,-0.237947017
0.06856675575,0.9194260445,1.258604808,0.7258733511,1.268200517,-0.2401696891
0.06274608677,0.8656909472,1.255730714,0.7989893556,1.070614576,-0.2077730596
0.0202115979,0.8178343865,1.234503801,0.8801691532,0.868019104,-0.1307094246
-0.05600187321,0.7678346763,1.123262564,0.9790225029,0.6759371758,-0.02774823084
-0.1413970142,0.704012777,0.8885153579,1.076548219,0.506570518,0.09155552089
-0.1900438484,0.6073194124,0.5508674574,1.157099009,0.3725981414,0.2056938261
-0.2095692176,0.4761985854,0.1826429245,1.206134439,0.2594114244,0.2892710268
-0.2514700848,0.3360568319,-0.1591270244,1.219275713,0.1609713137,0.3194627762
-0.2322504205,0.1765650659,-0.4998576934,1.19243443,0.09452544153,0.2915011942
-0.2008943283,0.04444645997,-0.8112088309,1.139704347,0.06188840792,0.2082381994
-0.1683142472,-0.02312806987,-1.109797225,1.05322957,0.07548304647,0.09214727581
-0.1255862816,-0.05694207667,-1.339061908,0.9461362362,0.1191397756,-0.02956551313
-0.1184860942,-0.09918284329,-1.464743174,0.8249048591,0.1848189086,-0.1452814639
-0.06309270825,-0.1264291621,-1.519016908,0.7035946846,0.2695589662,-0.2511351705
0.06169862354,-0.1598638142,-1.451870833,0.6016331911,0.3800460696,-0.3465359807
0.2062099703,-0.1955871618,-1.327930565,0.5339719057,0.5058840513,-0.4498203099
0.301705065,-0.1641416377,-1.177227378,0.4907211363,0.6151655316,-0.5541448593
0.2572235337,-0.2363201542,-0.9483002568,0.4845767319,0.6805602312,-0.6228269339
0.05409282472,-0.3370803298,-0.751865246,0.5132826567,0.713183701,-0.6135244966
-0.1353816994,-0.3619464755,-0.7409510533,0.5647848248,0.7246648073,-0.5234985948
-0.3214280026,-0.3819102361,-0.7734551465,0.6164134145,0.7005360126,-0.3825462759
-0.427877622,-0.4724199436,-0.7822422641,0.6481990218,0.6317673922,-0.2185614556
-0.4605512266,-0.6032505556,-0.8084981106,0.660428226,0.5326498151,-0.05853984132
-0.418836822,-0.6643824851,-0.9003545565,0.6423909068,0.4257538617,0.07447320968
-0.3364841175,-0.7088505724,-1.013958432,0.6095938087,0.3259841204,0.1789508909
-0.2676484816,-0.7685039539,-1.04446083,0.5688570142,0.2293161303,0.2647738457
-0.203558579,-0.8168342695,-1.05773386,0.5254158378,0.1493597776,0.34334746
-0.106837742,-0.8249205453,-1.133254673,0.475874275,0.1051120684,0.405382961
0.04969312845,-0.8111021556,-1.224315,0.4157702029,0.115049921,0.4373267889
0.261677006,-0.8195353452,-1.253876026,0.3575505912,0.1926845014,0.4302290976
0.4583054935,-0.8493743109,-1.217540099,0.2957932055,0.2962191701,0.3995798528
0.5695879399,-0.8753113007,-1.147449787,0.2333958298,0.39920035,0.3595759273
0.6755798787,-0.831667097,-1.116205339,0.1631610841,0.494964689,0.3094043732
0.7483511004,-0.7602996046,-1.068082236,0.09561280161,0.5611360073,0.2628576159
0.7571873178,-0.6878399331,-1.026724974,0.03722565621,0.5932553411,0.2162086368
0.7203437341,-0.6164210028,-0.940696796,-0.01057767496,0.5707176924,0.1804793179
0.6890788272,-0.551940055,-0.8512611475,-0.04614845291,0.5233650804,0.1466992497
0.5580325267,-0.4862684362,-0.851714152,-0.07096775621,0.4450150728,0.1320675313
0.4625070369,-0.449351495,-0.8338134614,-0.09006129205,0.3711208701,0.1206713244
0.4184212269,-0.4215419893,-0.839243962,-0.1031948179,0.3152807951,0.1109657809
0.3794464763,-0.3499880344,-0.8854467641,-0.1126778051,0.2939251661,0.09707952291
0.3766892866,-0.2588230779,-0.8935437075,-0.1147264466,0.3339294195,0.09695008397
0.4318728292,-0.1546150999,-0.8841190226,-0.1075193956,0.4116292894,0.1049094722
0.5133487508,-0.02714139716,-0.8518215579,-0.09235560149,0.5052072406,0.114473097
0.6568541354,0.01996142253,-0.7543015332,-0.06864627451,0.602437377,0.1287071705
0.8529735044,0.0439051927,-0.6149906777,-0.03347713128,0.6885066628,0.1392799616
1.111143379,0.04249591042,-0.4875701665,0.01094039995,0.7652730942,0.1490343213
1.371847156,0.03060322806,-0.3557607726,0.06253531575,0.8188314438,0.1507231742
1.58397658,0.01381254451,-0.2463824062,0.1159013361,0.8370082974,0.1459814161
1.691296552,-0.04362520671,-0.1706377217,0.1608487517,0.8035407662,0.1377734691
1.76927411,-0.09129062873,-0.1083656822,0.1976366043,0.7381031513,0.1313352883
1.793729337,-0.1338797704,-0.01040039798,0.2255635262,0.6487206817,0.1253405064
1.737888207,-0.1759977874,0.1141694,0.269073993,0.5412253737,0.1201729104
1.664891945,-0.1950485248,0.1990928318,0.3335735202,0.4225444794,0.1224678233
1.497263926,-0.1957216018,0.232962222,0.4199214578,0.3008513451,0.1289507598
1.319379302,-0.2180529683,0.15708149,0.5095615983,0.2122166306,0.146558255
1.080532552,-0.2466220602,0.08609145265,0.594776094,0.1614146978,0.1877086163
0.8027016993,-0.2663786078,0.01557180927,0.6603161693,0.1372455359,0.2646304369
0.6435276209,-0.255775673,-0.1247898705,0.7054903507,0.1392556876,0.3445148766
0.5038876795,-0.2590866973,-0.2657496623,0.7237876654,0.1388113201,0.3929806948
0.380384634,-0.2780415731,-0.3915754517,0.7153907418,0.1223175749,0.3855278194
0.2948720041,-0.3245706846,-0.476055962,0.6882141232,0.08995421976,0.3277175725
0.1798702449,-0.3646022507,-0.5412357057,0.6518457532,0.04814285785,0.2488576621
0.01268529405,-0.4024953435,-0.5864350298,0.6097680926,0.00412284676,0.170495674
-0.2792401352,-0.40269525,-0.6215574889,0.5727760196,-0.02687182091,0.1017597541
-0.5610831464,-0.3845964065,-0.6839474557,0.5496125817,-0.03291198984,0.06275010109
-0.7599491837,-0.2895651299,-0.7998743669,0.5369976759,0.0002670016838,0.04642971978
-1.023018521,-0.1949161306,-0.8937059123,0.5424569249,0.04524432868,0.04837915301
-1.249451195,-0.1889718353,-0.9446845505,0.5526126027,0.1048959419,0.06097484007
-1.339170044,-0.1940147979,-1.036175816,0.5499582291,0.1850449741,0.06899741292
-1.399866797,-0.195987267,-1.128783373,0.5265027285,0.232882008,0.07445369661
-1.636898022,-0.2544154906,-1.230600802,0.4849626422,0.2053813785,0.05687856674
-1.964323804,-0.3317076968,-1.321460639,0.4468179345,0.1009705439,0.02096610516
-2.282353981,-0.343015565,-1.428345873,0.4055196047,-0.03792352602,-0.01776151918
-2.663798353,-0.2755649538,-1.576100878,0.3531940579,-0.1725114286,-0.04790237546
-2.953271713,-0.1656362601,-1.711326802,0.2814388573,-0.2505800724,-0.05382185057
-3.077307843,-0.02849894925,-1.745232579,0.2060117424,-0.2414313257,-0.02700248919
