accelerometer x,y,z,gyro x,y,z
-0.008702763752,0.1185556523,-0.3669786244,0.03096747771,-0.07027670741,-0.03180324659
-0.08403788112,0.1158062074,-0.1487783566,-0.01007156726,-0.008380314335,-0.0276196897
-0.1186855623,0.06776347654,-0.02755845353,-0.04853658378,0.0535678044,-0.02934379503
-0.1081583961,-0.007128536706,0.06254793385,-0.08995752782,0.1063756198,-0.04652730748
-0.08998206688,-0.05624912597,0.1164122105,-0.1277912855,0.1200413108,-0.06111026928
-0.02721522959,-0.09593436288,0.1316898591,-0.1493008286,0.1217875406,-0.07349104434
0.0407077849,-0.1301873456,0.1297270346,-0.1541623324,0.125802055,-0.08311780542
0.1044030256,-0.1457452725,0.1391466049,-0.1572729051,0.1157600656,-0.08361662179
0.2225608377,-0.174971367,0.2209352458,-0.1615807861,0.08083882183,-0.08007825911
0.3181911396,-0.2621511263,0.1980009449,-0.1777765304,0.01875414327,-0.08994953334
0.3119910794,-0.344863531,-0.05233166026,-0.1823121905,-0.03723454848,-0.106841214
0.2565453787,-0.3295804755,-0.343683089,-0.1637584716,-0.03130208701,-0.1193596646
0.2866842042,-0.2756808353,-0.5650210704,-0.1411717683,0.02432951331,-0.1199627221
0.4171178892,-0.1879122432,-0.6234966402,-0.1223456115,0.0837771222,-0.1053875089
0.5870382564,-0.1262080667,-0.5415040012,-0.1077057198,0.1431144923,-0.07213451713
0.7734525162,-0.1040717113,-0.3297475027,-0.09587915242,0.1858206838,-0.03148749471
0.8938470743,-0.09571662848,-0.05920505316,-0.08197523654,0.199225679,0.006117526442
1.041000314,-0.1206838965,0.2529302205,-0.0685358569,0.1695870906,0.04504628479
1.174545884,-0.1773812777,0.5175882881,-0.06920395046,0.1195431575,0.07126938552
1.320249655,-0.3175775377,0.5840075104,-0.07894340158,0.07820609957,0.08375295252
1.287793493,-0.3618363662,0.4936719905,-0.08997195959,0.09054705501,0.1037940383
1.265719608,-0.2587017165,0.4660708668,-0.09448575228,0.1366162747,0.129753992
1.336757869,-0.2489154319,0.4319792121,-0.09570430219,0.1626378894,0.1606005579
1.439975667,-0.3113156278,0.4300362614,-0.08824133128,0.1735517979,0.1920343786
1.511656609,-0.3571995732,0.4530658393,-0.07672791928,0.1720177233,0.2309755385
1.533469212,-0.3648274378,0.5029419231,-0.06553705037,0.1450638771,0.2692954838
1.546253875,-0.4303967652,0.5594365483,-0.04806277156,0.09375666082,0.3113670349
1.488548413,-0.5196833607,0.6022007542,-0.04609842226,0.02816860005,0.3436762393
1.366908677,-0.6719143419,0.5516133073,-0.06010331213,-0.05020197108,0.3558778167
1.08155342,-0.7890399614,0.3632604807,-0.09449511021,-0.1213863939,0.3556144238
0.7882892892,-0.8447915131,0.09320786053,-0.1345974058,-0.1544038653,0.3494012356
0.5172615769,-0.851191078,-0.1788239508,-0.181416586,-0.1560121477,0.3391683102
0.3220160682,-0.9092383394,-0.4269458941,-0.2271821052,-0.1415397674,0.3271770179
0.2125765097,-1.010867918,-0.7110814002,-0.2592609525,-0.1109381765,0.311468631
0.1588025417,-1.07271786,-1.03008013,-0.2513661683,-0.06857637316,0.2923331261
0.09326507061,-1.126999193,-1.392123636,-0.2006593347,-0.02364511415,0.2602699995
0.03120247259,-1.137501298,-1.782803454,-0.09287850559,0.05527223647,0.2390639186
0.03844846166,-1.112385634,-1.975713213,0.05111381784,0.1617869586,0.2307444811
0.1617461939,-1.077591896,-1.858226651,0.1902258694,0.2422611266,0.2408310622
0.2964818505,-1.073021884,-1.389880825,0.2883369923,0.2746883035,0.2514618635
0.3862006268,-1.120009553,-0.855353093,0.3515325487,0.2726186514,0.2678053677
0.4119466241,-1.224804099,-0.3614928865,0.3693490922,0.2580476999,0.2771799564
0.3188243229,-1.375097975,0.06093056178,0.3565265238,0.2216671407,0.2605271339
0.2222689055,-1.497390768,0.3058493252,0.3381278217,0.1850313693,0.2393861413
0.1523709742,-1.540778366,0.4231038318,0.3169369996,0.1608258188,0.2221422344
0.07052446569,-1.549812883,0.4860159227,0.2992517352,0.1313302517,0.2088517249
0.02934175675,-1.583114118,0.5370791705,0.2886623442,0.09302977473,0.1984444261
-0.01067841121,-1.635182597,0.5274474188,0.2832933962,0.04100732133,0.1779002696
-0.101797775,-1.687017998,0.4920522803,0.2840512991,-0.00749068521,0.1548420042
-0.232035901,-1.725587675,0.4044967464,0.2879783809,-0.04902081564,0.1218172088
-0.389351492,-1.787861468,0.3086398327,0.295881331,-0.0846773535,0.07878855616
-0.4700763031,-1.8072353,0.2885018846,0.3048346341,-0.1108690128,0.03554787859
-0.4826517801,-1.786189882,0.3535603399,0.2982370555,-0.1390999109,0.0003501443716
-0.4646656031,-1.754902617,0.4389788618,0.2698411047,-0.1634214967,-0.03044931218
-0.432460639,-1.712912756,0.5256915151,0.2291970253,-0.1850041896,-0.0537863858
-0.4132219778,-1.671446627,0.6070651454,0.1817482859,-0.1962741613,-0.07746481895
-0.3606331279,-1.60567564,0.6389607514,0.1391608864,-0.2011699378,-0.09189958125
-0.3725908748,-1.502983911,0.6493535506,0.09231321514,-0.2013795227,-0.1083824188
-0.3076024525,-1.373579971,0.6924883434,0.05253322423,-0.1888808608,-0.1138283461
-0.2161537837,-1.222231326,0.6724000796,0.02699271031,-0.1651670039,-0.1154645905
-0.1073694742,-1.079697855,0.6996452294,0.01888172328,-0.1319151968,-0.1116449907
-0.01016520099,-0.937061216,0.8117004138,0.03020974621,-0.1113832816,-0.09836247563
0.08118837344,-0.8129225029,0.9531652325,0.05633236468,-0.1107379794,-0.08188052475
0.1860057886,-0.7322175656,1.173442891,0.0835051313,-0.1398673803,-0.06223411486
0.2838128865,-0.6767389856,1.461172622,0.09396735579,-0.2062069774,-0.03936155513
0.3248890663,-0.6307043797,1.66980602,0.09231140465,-0.3033929169,-0.01009155344
0.2966621755,-0.5953486964,1.762627512,0.08715709299,-0.3981774747,0.007517759688
0.2386877966,-0.5498074269,1.768696018,0.08128003031,-0.4792957604,0.02650210448
0.1991411279,-0.4986103236,1.684621897,0.07144456357,-0.5385658145,0.0506840311
0.1558948741,-0.4405307674,1.54265322,0.06390196085,-0.569734633,0.07828956097
0.1341961794,-0.4274528208,1.353037242,0.06121566147,-0.5644874573,0.09807192534
0.1427210293,-0.3933776788,1.177214226,0.0508178845,-0.5286394358,0.1203740314
0.1753882772,-0.3747114106,1.049407931,0.03604576737,-0.4731172621,0.1461611986
0.1948888042,-0.3757300862,0.9287386472,0.02210012451,-0.4128802717,0.1685655862
0.2255394516,-0.3768034145,0.8180003907,0.02124466002,-0.346832335,0.1872934848
0.2797713926,-0.2918684384,0.583489624,0.04380456358,-0.2659793198,0.2061824799
0.4632188384,-0.2318713581,0.3824631938,0.06978897005,-0.1874346882,0.2308605909
0.7066360382,-0.3318516353,0.3257809371,0.08083868772,-0.1507347226,0.2602413595
0.8891836856,-0.5524903824,0.51670566,0.05189462006,-0.1906743199,0.2858994603
1.070628121,-0.8455284491,0.732652596,-0.008855544031,-0.3126215339,0.2944772542
1.29757649,-1.071112836,0.7902443688,-0.08507287502,-0.4719470739,0.2974823713
1.540397989,-1.234904783,0.5879787521,-0.1524777412,-0.640974462,0.3071312606
1.794531886,-1.361896548,0.2047837369,-0.1810494363,-0.79275769,0.3242432475
1.890560064,-1.417791307,-0.336432095,-0.1668100506,-0.8920147419,0.3368844688
1.958465434,-1.485591755,-0.9826011703,-0.1237480417,-0.940250814,0.3423896432
2.059584944,-1.546440922,-1.635177775,-0.06911728531,-0.9380153418,0.3580626249
2.245642061,-1.654065138,-2.070549552,-0.007947227918,-0.9087185264,0.390594691
2.364357142,-1.748023233,-2.325318094,0.0494960919,-0.8580979109,0.4214562178
2.352339371,-1.859450056,-2.448342416,0.09848632663,-0.8325938582,0.4539941549
2.354089576,-1.965791539,-2.505763508,0.1178128868,-0.8154068589,0.4824524224
2.403940525,-2.174140713,-2.397269231,0.101174973,-0.7745167613,0.5103426576
2.315815813,-2.433622693,-2.310495203,0.05472304672,-0.6745685935,0.5189595819
2.110791838,-2.654337574,-2.056574218,-0.02277579717,-0.536955595,0.516851306
1.912117816,-2.839115465,-1.586651352,-0.134570241,-0.4268341362,0.496008873
1.615728393,-2.830145392,-0.9921569342,-0.2876062989,-0.3990921974,0.4438381493
1.243719812,-2.669844063,-0.5105319398,-0.4977347553,-0.5324140191,0.3872752786
0.9916323258,-2.475513916,-0.3926315366,-0.7681478858,-0.823012948,0.3198672831
0.6372346582,-2.272938795,-0.9767781632,-1.018452287,-1.115227699,0.2180296183
0.1269501173,-2.088593742,-2.627113175,-1.133871555,-1.278362632,0.08208151907
-0.1916387164,-1.726384817,-4.997485631,-1.052044868,-1.313854814,-0.06451670825
0.07095832706,-0.8825012122,-7.553304087,-0.7369818091,-1.204038858,-0.1272624284
0.6018479953,0.3688981213,-9.847704479,-0.2111228108,-0.9349349141,-0.04644347727
1.1037483,1.732895221,-11.34589955,0.4724711776,-0.4190458059,0.1959899515
1.413790986,2.921961506,-11.69236087,1.166187048,0.2223160863,0.5618078709
1.231663171,3.552413957,-10.32623852,1.718249202,0.8003655672,0.9093270302
0.5410011663,3.481903958,-7.765441109,2.078751564,1.242857695,1.141393781
-0.6910046807,3.415056281,-4.791800562,2.255114555,1.455582619,1.191737056
-1.873797584,3.054523764,-1.956836079,2.316582203,1.559331417,1.190956235
-2.023849175,2.09267882,0.458932101,2.264641762,1.455896378,1.198122025
-2.503043728,1.733807806,2.657649183,2.105741024,1.21521318,1.118278861
-2.720959918,1.71140279,3.795169697,1.93403554,1.012064099,0.9563976526
-2.828520129,1.341650025,3.979887966,1.779449701,0.8383951187,0.7913010716
-1.851478639,1.601357046,3.766273857,1.609282851,0.6143190861,0.7085328698
-1.137728384,2.220660034,3.836234698,1.382312298,0.3842304945,0.6655835509
-1.066457996,2.313378942,3.725202427,1.129585981,0.272670418,0.6125549078
-1.263747139,2.126576267,3.217649795,0.8957042694,0.3371838927,0.5568274856
-1.323532769,2.094537746,2.682006795,0.6862772703,0.5084483027,0.5294712782
-1.347838066,2.28659118,2.383886602,0.4971182942,0.7062495351,0.5146531463
-1.474047009,2.577883865,2.31134276,0.3198313117,0.9119080901,0.4857030511
-1.678558067,2.77404415,2.425467152,0.1558602303,1.091310859,0.4457604289
-1.771283697,2.885331565,2.61807822,0.006773042493,1.267270088,0.4178907275
-1.779085603,2.976106938,2.751107803,-0.1134087592,1.438918829,0.3903794885
-1.821928281,3.113272013,2.870973954,-0.1948345304,1.532445192,0.355796963
-1.733257187,3.184994018,2.750526789,-0.1995464563,1.465335965,0.3092675507
-1.914166565,3.075416622,2.506741413,-0.1131955013,1.231561184,0.2148366123
-2.081163446,2.730339448,2.477310736,0.05344328284,1.026443362,0.08170012385
-2.03612925,2.437571431,2.723396205,0.2332886755,0.8062951565,-0.06079932675
-1.773019727,2.270665005,3.23049934,0.3731941283,0.57567662,-0.1796434224
-1.551271411,2.14566646,3.857109728,0.4259293079,0.3886767328,-0.2940048575
-1.495622589,2.132761678,4.5603825,0.3560650051,0.2462623119,-0.402133733
-1.365649032,2.130381505,5.175103713,0.1910413206,0.1641159952,-0.4992824495
-1.176402179,2.097495426,5.41634408,-0.01643090509,0.1434485316,-0.5730293989
-1.009192532,2.058394419,5.295517561,-0.2250348032,0.1729124486,-0.6268408298
-0.88659798,1.635580802,4.936710552,-0.411052078,0.2334540933,-0.679671526
-0.8080115692,1.083937684,4.548746423,-0.5635614991,0.3039757609,-0.7446490526
-0.7734018089,0.6374784038,4.171638619,-0.7085629106,0.3190799057,-0.8476290107
-0.9375962727,0.5828171316,3.872018543,-0.8299334049,0.2688838542,-0.9866483212
-0.8996715427,0.1667231786,3.359431424,-0.9007136226,0.2373062521,-1.095555425
-0.6574621113,-0.2527282681,2.933411413,-0.9540570378,0.1759030819,-1.147790432
-0.3762700017,-0.4242500792,2.424302784,-0.9981701374,0.124782905,-1.151156306
-0.0381589772,-1.01377343,1.57449505,-0.9847869873,0.06166813895,-1.091843843
-0.8651873815,-2.417251696,0.5848199959,-0.9697729349,-0.1255603433,-1.148578048
-3.145213212,-4.76983949,1.16292442,-1.076202512,-0.1381214708,-1.300175548
-2.05518744,-5.254099509,0.1659510252,-1.054942727,0.01669607311,-1.302544117
-0.3344677361,-4.934019413,-1.951656046,-1.066280723,0.1613519341,-1.214791059
-1.059512414,-4.636908983,-2.993516045,-1.068122625,0.273668617,-1.136096001
-1.756786385,-3.862624107,-3.892588453,-0.9042963386,0.4905971587,-1.045816422
-1.423787917,-3.748129713,-4.290480102,-0.7078250647,0.5822117925,-1.011241674
-1.173077419,-3.969385569,-4.048581563,-0.5305680037,0.4641396403,-1.001867533
-1.22640715,-4.322711224,-3.80854648,-0.299353987,0.2421055287,-1.031653881
-1.355969057,-4.655739355,-3.758844584,-0.002214566572,-0.009950647131,-1.094464183
-1.449997148,-4.601144134,-3.514927691,0.3331658244,-0.2185155749,-1.178191543
-1.418372322,-4.413465261,-3.068473379,0.6658350825,-0.3643807173,-1.262848735
-1.114011263,-4.226158144,-2.189312125,0.9262410998,-0.4861167371,-1.340986609
-0.4832580023,-4.016373238,-0.872817438,1.080560565,-0.5572437048,-1.398246646
-0.01608341206,-3.60872095,0.5560194333,1.077797055,-0.6098973155,-1.491905451
-0.3803730897,-2.787870723,1.745861671,0.9720882177,-0.7114025354,-1.698409796
-0.9435223018,-2.042965964,2.440437926,0.8609275818,-0.6702919006,-1.897068262
-0.2085391439,-0.9237284178,2.637906956,0.7120976448,-0.4777195156,-2.022489071
0.7830644672,-0.4091188533,2.592561502,0.5358414054,-0.1684977561,-2.020243645
1.715470332,-0.441764547,2.508369307,0.3736092746,0.1069296747,-1.861414194
2.736715705,-0.6266118497,2.688831672,0.2069446594,0.1999901086,-1.610946298
4.014465359,-0.8369418225,2.818513699,0.05579993874,0.08981511742,-1.287799716
5.21265866,-0.9420821129,2.657794729,-0.0363233313,-0.1032520756,-0.87279737
5.838893201,-0.7201571254,2.225174296,-0.04707631469,-0.1967309266,-0.3705954254
5.046875393,-0.259666543,1.832955432,-0.05340238661,-0.3247179091,0.03860913962
3.406616369,0.3702706517,1.17974696,-0.01652612723,-0.3814504147,0.2811176479
2.199527522,0.6038505673,0.06452244879,0.0996915549,-0.2076735795,0.3967238665
1.514630656,0.5976986205,-0.855659967,0.2199755907,-0.1711160988,0.4548329413
1.375544549,0.4030927249,-0.6881015066,0.3220593631,-0.1402620375,0.4885256588
1.658257329,-0.07257175361,-0.714041419,0.3389887512,-0.1240152419,0.5180319548
1.685526298,-0.4585797804,-0.3927560398,0.2216810584,-0.122382991,0.5433437228
1.642944463,-0.6698052408,-0.02582534613,0.01740651019,-0.06097893044,0.5671623945
1.729162757,-0.8712380599,0.007474865925,-0.2247597873,0.02503451146,0.6042761803
1.830094782,-1.033945865,-0.3102396691,-0.4523734748,0.1162132397,0.6599857807
1.852185033,-1.034312361,-0.9774866038,-0.5798717737,0.182038337,0.7552379966
1.651469423,-0.880236336,-1.900391723,-0.5670075417,0.1978460103,0.8351785541
1.19542033,-0.8165699195,-2.66577053,-0.4625149667,0.0797361508,0.8773701787
0.9519934122,-0.7965072285,-2.98944485,-0.3332864344,-0.2159353495,0.9095961452
0.8810078318,-0.9016380205,-3.421278517,-0.1814436466,-0.6026937366,0.9556568861
0.563687849,-1.143360472,-4.315915572,0.03103272058,-0.952826798,0.9795176387
-0.1536371948,-1.147529574,-5.186977691,0.2610240877,-1.254669189,0.9613189101
-1.02536333,-0.8175725207,-5.628760504,0.4269220829,-1.435791731,0.8930281997
-1.894606125,-0.4860866499,-5.677629457,0.4977608323,-1.413305044,0.7897124887
-2.62536487,-0.2042345786,-5.526676679,0.4807032347,-1.186346292,0.650519371
-3.056129446,0.04511924466,-5.078275324,0.4022718072,-0.8685946465,0.494033128
-2.9949566,0.3263976077,-4.401560888,0.2981427908,-0.5394852161,0.334787339
-2.592069626,0.6807257172,-3.693851011,0.2022990882,-0.2475657612,0.1915947944
-1.97018159,0.9395449957,-2.97897957,0.1247518137,-0.0258166641,0.08645244688
-1.000261111,1.156196573,-2.214984911,0.05215031654,0.129259482,0.05312138051
0.3189745451,1.302976741,-1.562238795,0.02787442319,0.21173051,0.1146992892
1.464056069,1.36623107,-1.276432725,0.09123661369,0.2428503335,0.2612218857
2.328964926,1.512178295,-1.015630749,0.2484811246,0.2093114704,0.4750410616
2.646720962,1.725349628,-0.6655290248,0.4771824777,0.08764121681,0.7118695974
2.455892977,1.893785748,-0.2323112108,0.7299060225,-0.0824335441,0.9454369545
2.016025934,1.940798552,0.2836784099,0.9650753736,-0.2537727952,1.143836617
1.10977684,1.851582976,0.802067493,1.158209205,-0.4239935279,1.259877443
0.08220511274,1.586874931,1.262614043,1.292829037,-0.5426325798,1.272637725
-0.6140852533,1.30461311,1.782909252,1.343671918,-0.5989680886,1.20102191
-1.033008438,1.177919744,2.381180851,1.306006908,-0.6273174286,1.077116489
-1.06318723,1.291320206,2.922893526,1.198806524,-0.5983012915,0.9465606809
-0.7823322805,1.546056307,3.256578953,1.074551225,-0.4711782634,0.8659356236
-0.3864592777,1.923552233,3.501277936,0.9629378319,-0.2978841662,0.8414458632
-0.06266038125,2.265837438,3.757658005,0.8636195064,-0.1389389634,0.8515272737
0.2264922954,2.429609658,3.993627738,0.7918465734,-0.02570776269,0.8731492162
0.4728060203,2.380560088,4.285024175,0.7335374355,0.04148991778,0.9001637697
0.5740862743,2.243037285,4.676646242,0.6556987762,0.02752405405,0.9068202972
0.5664423354,2.009333743,5.00284862,0.5479835272,-0.04950548336,0.8901885748
0.6389081444,1.710727813,5.201638084,0.4137695432,-0.1816375107,0.8507526517
0.8130642495,1.421132288,5.230554382,0.254757762,-0.3666502535,0.798078537
0.9969124581,1.155149694,5.047463422,0.07534074038,-0.6109179854,0.7275154591
1.095539129,0.8932312805,4.535755424,-0.09877406806,-0.8903464079,0.654551506
1.066960831,0.6551426554,3.543776184,-0.2369614691,-1.159224987,0.5777148008
1.00641693,0.4289645405,2.074067789,-0.3048079014,-1.348207951,0.5043974519
0.9662287122,0.2133236017,0.4286848468,-0.3080113828,-1.425953507,0.4311502576
0.9215084037,0.1014776762,-1.147111349,-0.2526783645,-1.364578605,0.3561636209
0.8526609313,0.133616151,-2.43537129,-0.1632351875,-1.15806818,0.2926078141
0.8628621535,0.2699325009,-3.275631444,-0.05842060968,-0.8238688707,0.2548380792
1.057317681,0.4245762424,-3.554553599,0.02522661537,-0.4266490638,0.2472336888
1.386563664,0.5413546559,-3.205731978,0.0577528663,-0.05531359091,0.2738266885
1.771809182,0.6003606793,-2.462229487,0.04961300641,0.2149777859,0.3156370819
1.966362324,0.5244160883,-1.73328159,0.04117131978,0.347140342,0.3496179581
1.929025989,0.3788338974,-1.14159054,0.0377150327,0.3874383271,0.3662202358
1.771719019,0.2435524435,-0.7246417235,0.05918383971,0.3360792696,0.366900146
1.649367628,0.08670008607,-0.5412795448,0.1239298731,0.233512938,0.3531476557
1.526428646,-0.0434592025,-0.4989835409,0.2207605541,0.1097095013,0.3395652771
1.413457808,-0.04230623307,-0.4491086261,0.3102576137,-0.01798275113,0.326497972
1.318497259,-0.01017594158,-0.505247862,0.3804968894,-0.09844510257,0.3273584247
1.108360324,-0.08631167127,-0.6111158821,0.414660722,-0.07920029759,0.320581764
0.8025440245,-0.1575850556,-0.6231698925,0.4176762104,-0.02078386396,0.3050629795
0.5276198528,-0.2745081383,-0.6912462344,0.409368068,0.06533846259,0.2792421877
0.2495971305,-0.363742419,-0.7334966456,0.3889203072,0.1713104397,0.2392058223
0.04819704468,-0.4187959054,-0.6386562155,0.349165827,0.3038698733,0.1920633763
-0.125628221,-0.5037947405,-0.4845452657,0.2848123908,0.4400125146,0.1417789012
-0.3098066845,-0.6635556789,-0.2920475944,0.1748048067,0.5675403476,0.08218900859
-0.3873027428,-0.8901713084,0.007661328408,0.0261812415,0.6641619205,0.02303140797
-0.3452060608,-1.02835316,0.2200935343,-0.1229963154,0.6748459339,-0.01826488227
-0.2072209009,-1.10919546,0.01032791727,-0.1883905083,0.5910046101,-0.02859501913
-0.03726663147,-1.177859539,-0.5944523321,-0.1442645937,0.4175487459,0.0001113635517
0.06447583317,-1.224229952,-1.354422559,-0.01741662994,0.2090160251,0.0750412643
0.002936491843,-1.327816291,-1.970438488,0.1522904038,-0.01677023247,0.1729668081
-0.2260238011,-1.593088107,-2.211882269,0.3188455701,-0.2749397159,0.2462506145
-0.7621569229,-1.966592334,-2.09816295,0.4333907664,-0.5327118635,0.2663502395
-1.258329206,-2.259520803,-1.937113141,0.5017383695,-0.6889835,0.2449525446
-1.495504515,-2.332128066,-1.841966422,0.5245947242,-0.6995130181,0.2435055822
-1.644140541,-2.176616017,-1.63238376,0.4880734682,-0.5857941508,0.18187204
-2.178241719,-2.662508898,-1.588908775,0.4328364134,-0.4619629085,0.1351545751
-1.978690183,-3.001606413,-1.629579808,0.3731661439,-0.3902916312,0.1026783735
-2.012833568,-2.596848385,-1.342811616,0.3114626408,-0.3086166084,0.04327782989
-1.89837293,-2.232782433,-1.145831246,0.2933502197,-0.2188462466,0.003314434551
-1.442286135,-1.948481215,-0.9273100757,0.28133744,-0.1866156608,0.01355266757
-0.8793747507,-1.473442906,-0.689272304,0.2900153399,-0.2310116142,0.06529975682
-0.2660736335,-0.9923401818,-0.3853852187,0.33785671,-0.3756836057,0.1589038223
-0.02504500941,-0.7037716617,-0.1331891578,0.4399140775,-0.5552216768,0.2748927474
-0.3610112405,-0.70477324,0.3020902649,0.5212589502,-0.703060329,0.3530697227
-0.605666969,-0.603982377,1.19250415,0.5471837521,-0.8114797473,0.3901158869
-0.6467930524,-0.182188751,1.921940122,0.4824087024,-0.9828795791,0.346039027
-1.32463883,-0.1528305546,2.644527836,0.2301151901,-1.307260871,0.1792689413
-1.397847274,0.07358136904,2.863651648,-0.2117550075,-1.616003752,-0.008388727903
-0.9466849305,0.6242293384,2.244143785,-0.7178472281,-1.701765299,-0.1772640347
-0.9249792947,1.252261284,0.4160743715,-1.11792779,-1.495294809,-0.283926934
0.02305734272,1.659718634,-2.133075858,-1.282509208,-1.045357704,-0.2642685473
0.6426990611,2.260850882,-4.559427391,-1.176820278,-0.5083290935,-0.1407199353
0.47608285,3.001538024,-6.107171797,-0.8071942925,-0.01700487733,0.05690525845
-0.041182782,3.515636132,-6.429864121,-0.2860165834,0.3656439483,0.2636003792
-0.7469888721,3.605761224,-5.635245775,0.2601966858,0.4278165102,0.4288026392
-1.512386384,3.446017821,-4.268050244,0.7640393972,0.2017699033,0.5042738914
-2.348793077,2.934125406,-2.784198757,1.243154526,-0.2197898626,0.4606931508
-3.320437092,2.477417411,-1.466598739,1.597032905,-0.7848781347,0.2831188738
-4.272363723,2.321026242,-0.1560492244,1.712870598,-1.362069726,-0.008528423496
-4.841872752,2.314512037,1.149165359,1.549011707,-1.737830639,-0.3459354937
-4.734072887,2.36492705,2.017789437,1.16145277,-1.785814047,-0.6571192145
-4.153906563,2.637914555,2.392034838,0.6405721903,-1.499805927,-0.9037238359
-3.387560371,3.089355423,2.488233112,0.05788105354,-0.9917262197,-1.076514482
-2.515869891,3.648036185,2.628642284,-0.5038077235,-0.3417957723,-1.18198204
-1.583346757,4.00987277,2.812530533,-1.023014426,0.2468203455,-1.23710227
-0.4697919332,4.124434969,3.1166713,-1.405740261,0.8117033243,-1.23322463
0.4462918151,4.219227761,3.271055806,-1.629243374,1.123286128,-1.195694089
0.9550792494,4.170414922,3.321280265,-1.695869565,1.140312314,-1.14143765
1.402652044,3.982902346,3.46448579,-1.615071177,0.9431379437,-1.070934176
1.64596045,3.740622991,3.564333235,-1.440380216,0.5894116759,-0.9969593883
1.730949933,3.467932131,3.473016303,-1.225947022,0.1106631681,-0.8985902071
1.743710338,3.394406292,3.422426518,-1.04332912,-0.4007205963,-0.7732058167
1.654500607,3.009416502,3.086106651,-0.8009446859,-0.715662539,-0.6993883252
1.461206232,2.504534843,2.516653735,-0.5647488832,-0.8959282041,-0.675917089
1.244632689,2.137955739,2.26965232,-0.4504888952,-1.01974225,-0.6685765982
1.062580131,2.018104787,2.391511106,-0.5043802261,-1.074119568,-0.6328068972
0.9654296708,1.888359924,2.555073775,-0.6549398899,-1.004229426,-0.5853666663
0.8701505569,1.553810574,2.496311789,-0.8456008434,-0.8848336339,-0.5531708598
0.5267880781,1.291810327,2.343878417,-1.071057439,-0.790230155,-0.5552606583
0.3501888177,1.123495496,1.985262547,-1.291933537,-0.7078478932,-0.5659686923
0.255482243,0.7961343036,1.342242291,-1.458567023,-0.653991878,-0.5832722783
-0.02964841155,0.6158244982,0.4833978492,-1.535786271,-0.623472333,-0.6301929951
0.1276835461,0.2670803264,-0.5265367337,-1.519962311,-0.6241452694,-0.6120225191
0.4359446086,-0.058059098,-1.420621416,-1.40096283,-0.6256037354,-0.5773953199
0.320977044,0.01047404774,-2.124135011,-1.215858579,-0.5842792392,-0.5562205315
0.2418351182,-0.078473525,-2.390908464,-1.030805111,-0.5139021873,-0.5270375013
0.3297954335,-0.2852978278,-2.380492868,-0.8688122034,-0.4064668119,-0.4843403697
0.4111015515,-0.5342082912,-2.17967219,-0.7463027239,-0.2552198172,-0.4475076497
0.3891024857,-0.7486229031,-1.618257619,-0.6840041876,-0.1125825122,-0.4261975884
0.4829392918,-0.876888633,-0.8297112868,-0.6852741241,-0.02412424609,-0.4168739915
0.616822277,-1.049796638,-0.06481529426,-0.7295710444,0.01815636456,-0.4229161739
0.7579825598,-1.196953531,0.4320107763,-0.7830891013,0.03185140714,-0.4340085089
0.8365782499,-1.21629536,0.6894406463,-0.8345448375,0.02984843962,-0.4385465384
0.9322706207,-1.158169626,0.811879862,-0.8713979721,0.02644370124,-0.4301998317
0.9702584061,-1.180890577,0.8510621178,-0.895590663,0.02133709006,-0.4173956215
0.9520844515,-1.257774202,0.7929290778,-0.9111418128,0.01672560349,-0.4012490511
0.9161895468,-1.361549926,0.6591343553,-0.916131556,0.01718792692,-0.3940092325
0.7623749496,-1.449585937,0.4352028504,-0.8977534771,0.03218398243,-0.3892578781
0.6334186071,-1.477155643,0.2060468887,-0.8540153503,0.05686962232,-0.3803602457
0.6343453665,-1.499209215,0.002637362766,-0.787792325,0.07648874819,-0.3630260825
0.6735086254,-1.542626917,-0.1917857237,-0.7093933821,0.09226345271,-0.3357185721
0.6550087998,-1.545804378,-0.2797299646,-0.6262452006,0.1078650504,-0.300275892
0.589657499,-1.587709044,-0.2596492996,-0.5573659539,0.1121684536,-0.2644603848
0.5162836352,-1.730900541,-0.2223994731,-0.5015442967,0.09509778023,-0.2306778729
0.4016168071,-1.910078712,-0.2680126388,-0.4626193047,0.06812075526,-0.2062910497
0.2198550493,-2.047911603,-0.3519914832,-0.4308153689,0.031789314,-0.193295598
0.004595511097,-2.182530502,-0.4804530279,-0.4042820334,-0.004910111893,-0.1956005692
-0.2802250546,-2.341060145,-0.6784276694,-0.3829367459,-0.01921272278,-0.2150921077
-0.4928685651,-2.457047116,-0.9038497052,-0.3684504628,-0.01379691809,-0.2347582132
-0.5407856238,-2.544107559,-1.142398349,-0.359333843,0.01237641461,-0.24939996
-0.5217950921,-2.562722244,-1.323079326,-0.3601154983,0.06928364187,-0.2528998852
-0.4657482107,-2.549353059,-1.404158357,-0.3719449639,0.1583354771,-0.2458619028
-0.4060042284,-2.557655608,-1.443592542,-0.3944188356,0.2771681249,-0.2390330285
-0.3776832661,-2.603866447,-1.392380826,-0.4182408452,0.4133139849,-0.2327331007
-0.3026949528,-2.62355256,-1.289797234,-0.4405418932,0.5461069345,-0.2312968522
-0.1854886693,-2.618652805,-1.115813709,-0.4588556886,0.6578781605,-0.2241680622
0.1077399515,-2.609497439,-0.8912760548,-0.4661716521,0.737285614,-0.1834709644
0.5935404779,-2.640361071,-0.9003098406,-0.4202608168,0.7791554332,-0.07652783394
0.8121487421,-3.022441403,-1.263141867,-0.2693477273,0.7964302897,0.08967099339
0.4970435127,-3.868402691,-1.573055373,-0.0672486946,0.7445173264,0.2383672595
-0.5487576256,-4.719727259,-1.675781588,0.1366208196,0.6962592006,0.2350060791
-2.032568196,-4.809836861,-1.368618842,0.2903136313,0.6089118123,0.05049497262
-2.714535146,-4.736862518,-1.086229303,0.377858907,0.5144037008,-0.2003351301
-2.329189967,-3.903910642,-0.3951175082,0.3621489704,0.4563708305,-0.3887734711
-1.409526606,-2.615299695,0.3162760267,0.1837331653,0.2495411932,-0.443184793
-0.3874056187,-1.833308629,0.3280570654,-0.0727269277,-0.1251465231,-0.3621119857
0.2326207151,-1.534375952,-0.7719634467,-0.270837903,-0.5662940741,-0.2314386517
0.1207151684,-1.417366068,-3.024664048,-0.275370568,-0.9216829538,-0.1368941218
-0.4854837156,-1.285730131,-5.690771262,-0.04417225718,-1.024537206,-0.1054523215
-1.196908815,-0.9109871558,-7.895033119,0.3512771428,-0.8466746807,-0.08254811913
-1.718105941,-0.3010463088,-8.842141536,0.7754569054,-0.5098707676,-0.04512698203
-1.772426145,0.3056558485,-8.360975976,1.094589114,-0.1503263563,-0.004031119402
-1.390970374,0.7220433776,-6.934492389,1.252153158,0.09578992426,0.02687779441
-0.7455781286,0.8874640953,-5.177998266,1.240871191,0.1928709447,0.04166282341
-0.156960494,0.9054306907,-3.725585873,1.121111989,0.211103484,0.05696321651
0.1665177192,0.9581921207,-2.960139845,0.9978186488,0.2139372975,0.07354262471
0.3983253643,1.016368708,-2.834525507,0.9447980523,0.2862416208,0.1041367501
0.575269785,1.174007832,-2.953004002,0.9830759764,0.4495982826,0.1392835975
0.7886495008,1.457640356,-2.766323493,1.084592223,0.6701799631,0.1913063079
1.111489416,1.827963615,-2.104962693,1.202147245,0.9131478667,0.2612216771
1.49953947,2.268817623,-1.079284013,1.312389851,1.141239405,0.3514271975
1.908855599,2.711287834,0.2039876181,1.385609269,1.309127808,0.4611930549
2.309687978,3.068611911,1.648075835,1.386933923,1.402864933,0.5702292919
2.680698342,3.308588541,3.065559537,1.320063949,1.423755527,0.6764660478
3.036484834,3.455907931,4.301261608,1.189034581,1.358510494,0.7777910829
3.306775355,3.620665655,5.136546896,1.029681087,1.241050601,0.8809302449
3.42658013,3.70101228,5.571774296,0.8664311767,1.11548841,0.9878585935
3.502140982,3.672560385,5.691296748,0.7118112445,0.9944136143,1.081102014
3.533692013,3.563410275,5.623094149,0.5744339228,0.864843905,1.165373206
3.575514554,3.41188145,5.419775809,0.4664748013,0.7204614282,1.241384745
3.554431434,3.14964681,5.076342895,0.3940591812,0.5740736127,1.289650321
3.382268402,2.928490323,4.486763137,0.3586663008,0.433137238,1.345752239
3.367660616,3.060240388,4.049091266,0.3247727752,0.2808595598,1.429493189
3.20794527,2.987464782,3.52947761,0.309635669,0.1479241401,1.52737844
3.062888272,2.6334038,2.966206598,0.3147076666,0.003672949038,1.625215292
2.670772576,2.212863681,2.434467035,0.3421214521,-0.1995090991,1.661766529
1.939717771,1.718845361,1.790616174,0.3918860853,-0.4531810582,1.627585888
1.364007841,1.101172605,0.926275472,0.452608794,-0.7338452935,1.531896472
0.9986591557,0.5240063384,-0.03559095334,0.5115722418,-1.001821041,1.398165584
0.919632673,0.106091892,-1.085409218,0.5603972077,-1.177246332,1.248044729
1.145769871,-0.0982420553,-2.234280563,0.6201620102,-1.201076031,1.120745897
1.472525206,-0.06731091047,-3.323644656,0.6970235109,-1.051813841,1.046824217
1.680625813,0.1305661158,-4.132069994,0.780616641,-0.7602518797,1.027684927
1.816160365,0.3318783772,-4.475144011,0.8528507352,-0.3800992072,1.040126801
1.802242606,0.4278346597,-4.406622848,0.9040798545,-0.009405825287,1.063203812
1.624310344,0.3613619536,-3.966049995,0.931393683,0.2532668412,1.053684831
1.373079036,0.09283347426,-3.37662572,0.9358834624,0.3957398534,0.9804433584
1.113777819,-0.152259769,-2.827037197,0.9347416759,0.441082865,0.865557909
0.9768985748,-0.164385091,-2.340502803,0.9241210222,0.4177596867,0.7408397198
1.008324517,0.00928571474,-1.991536805,0.9196292758,0.3778428137,0.6373229027
1.156902091,0.2529036247,-1.786783464,0.9229158759,0.3727561831,0.5655435324
1.276862057,0.5465174455,-1.676319932,0.9350345135,0.4198746979,0.5257083774
1.303796825,0.8378943009,-1.551641413,0.9563834667,0.5083459616,0.5098652244
1.300559451,1.063979477,-1.380399296,0.9816688299,0.6065913439,0.507250011
1.182699672,1.195622866,-1.016717959,0.9925089478,0.7030382156,0.5055817962
0.985456852,1.297891401,-0.5362409661,0.9650164843,0.7933191657,0.4953644276
0.7675131893,1.36197692,-0.05096913974,0.9127788544,0.8750734329,0.4760306776
0.7127317978,1.420249368,-0.06181961958,0.8366681337,0.9404219985,0.4415929615
0.524800996,1.413145966,0.3553600828,0.7378914952,0.9868358374,0.4018487334
0.4343699067,1.391560449,0.724547031,0.6309093237,1.005933404,0.3728525937
0.4381257521,1.435413912,1.040800846,0.5408633351,1.003142953,0.3737029433
0.5247127332,1.549167132,1.235851709,0.4802244604,0.9739272594,0.3889413476
0.6337909475,1.445913386,1.1928648,0.4105090201,0.9002133608,0.4207008779
0.3834089502,1.650980324,1.241658934,0.3695240021,0.8105672598,0.4572301209
0.3233621855,1.781771188,1.105498067,0.3609986901,0.7161129117,0.505656302
0.321939167,1.549648194,0.7367460028,0.3438946009,0.6056311727,0.5368075967
0.1565641882,1.33861884,0.4652180494,0.2940431535,0.519575119,0.5451033115
-0.206094235,1.210478783,0.3304594503,0.213701576,0.4518327713,0.559415102
-0.4179313976,1.051122333,0.2826858918,0.1185510904,0.3865573406,0.580162704
-0.6113032214,0.9399334104,0.1936468414,0.0262987446,0.3123304844,0.5886055827
-0.8912132187,0.851913474,0.04097907612,-0.04216446728,0.2409921288,0.5950374007
-1.150171906,0.7204296588,-0.2119113968,-0.0810085088,0.1714560986,0.6046707034
-1.309613403,0.5381973609,-0.5437357058,-0.100537464,0.121774815,0.6127973199
-1.521997678,0.3637964873,-0.8372048574,-0.1149802655,0.09574222565,0.6185369492
-1.728191282,0.231529705,-1.024935753,-0.11623355,0.06498671323,0.6147733927
-1.886188425,0.1317360364,-1.082569026,-0.1148628443,0.01128967106,0.5927771926
-1.971958537,0.06508446659,-1.049865027,-0.112211138,-0.05942710862,0.5653378367
-1.983034934,0.086598087,-0.9868938991,-0.1061962694,-0.1140240803,0.5559972525
-1.899658732,0.1936611621,-0.9352858769,-0.1060868129,-0.1589758545,0.5686651468
-1.734098168,0.362841963,-0.8241606669,-0.09855062515,-0.210393846,0.6082259417
-1.598082846,0.5445914458,-0.7020294942,-0.06298198551,-0.2859746218,0.6572811007
-1.599612832,0.6390989908,-0.5942483339,-0.03887588158,-0.3666349351,0.6819062829
-1.950392017,0.6541890079,-0.3542763793,-0.1107231751,-0.4303622544,0.6761720181
-2.309104918,0.6116846219,0.2996925561,-0.3323685825,-0.5000247359,0.6265031695
-2.527436411,0.5297402059,1.284383977,-0.7088841796,-0.5925248265,0.504331708
-2.719022812,0.2974450695,2.202283835,-1.197909951,-0.6738636494,0.305672884
-2.693125862,-0.1197521686,2.7503602,-1.685676098,-0.7115947604,0.08035293967
-2.515667355,-0.4731508882,2.504163087,-2.039659977,-0.6427539587,-0.1205776483
-2.251665997,-0.5104834245,1.340653561,-2.176674366,-0.4969778657,-0.2296476811
-1.833801235,-0.279740486,-0.4829705637,-2.069154024,-0.3189961314,-0.2228202522
-1.378099202,0.09134498927,-2.440824295,-1.751761675,-0.1324885637,-0.1430921257
-1.073282727,0.4624409859,-4.006007327,-1.305476308,0.01245422103,-0.0459452644
-1.019255661,0.7469897489,-4.743925296,-0.8510421515,0.02459344082,0.03276925534
-1.1254893,0.7701689645,-4.502283947,-0.4725998938,-0.09015841037,0.08789789677
-1.116467497,0.6011866088,-3.626528702,-0.2246747613,-0.2720352709,0.1069791839
-1.207067513,0.3611325288,-2.509959206,-0.0800286755,-0.411449343,0.07267523557
-1.590852603,0.1718836301,-1.564431337,0.02107877098,-0.4244301021,-0.001696737367
-2.091089066,0.03979775738,-1.038455744,0.1082653999,-0.348079443,-0.09453338385
-2.392114332,0.01068593693,-0.6539800413,0.166375041,-0.237534821,-0.1990379542
-2.344891686,0.1551297714,0.638603024,0.1771310121,-0.1220857278,-0.3015102744
-2.042057324,0.3228954448,1.54694478,0.1458921432,-0.02218140848,-0.390728116
-1.6501202,0.5091606515,2.371952419,0.08033069968,0.04593958706,-0.4648505449
-1.313580261,0.6391197413,3.12847572,-0.002859048545,0.05177787319,-0.525323391
-1.109351527,0.6725336429,3.772508368,-0.112470232,-0.01032198314,-0.5885732174
-0.9590119127,0.6164809163,4.165915565,-0.224882707,-0.1235578433,-0.6667940021
-0.8271382214,0.5412099867,4.257414283,-0.3162989318,-0.2741979361,-0.7546378374
-0.7329428111,0.4702773786,4.139676377,-0.3873777688,-0.4392572343,-0.8530628681
-0.6899503494,0.4341635704,3.924737742,-0.4405097067,-0.6031018496,-0.9575994015
-0.6960115491,0.4759279517,3.633503217,-0.4855824411,-0.7294100523,-1.056949973
-0.6565852554,0.5863347843,3.251411779,-0.533955574,-0.8047937751,-1.129348516
-0.5616361041,0.7335252872,2.906266801,-0.6009532809,-0.8547526598,-1.186410069
-0.5180439229,0.7944429895,2.538857384,-0.6768384576,-0.879586637,-1.228186727
-0.481401707,0.7935910488,2.113456381,-0.7582582831,-0.866407752,-1.265515089
-0.4013920584,0.8181623033,1.659390425,-0.8300669789,-0.8364828825,-1.280694604
-0.389429818,0.863251445,1.163513033,-0.8856720328,-0.8205586076,-1.286880732
-0.420805784,0.8532675189,0.666467767,-0.9134588838,-0.8272969127,-1.294294715
-0.517739387,0.792866534,0.0970844097,-0.9017413259,-0.8641047478,-1.309836268
-0.5862555816,0.7567553561,-0.4437374545,-0.8619209528,-0.898157239,-1.330286384
-0.5445426383,0.7543138082,-0.9172621444,-0.793304801,-0.9159206748,-1.342968106
-0.4340697547,0.8049383723,-1.302138829,-0.7106046081,-0.9044965506,-1.335904598
-0.3240688725,0.8797381772,-1.508320742,-0.6391394138,-0.8480414152,-1.320715904
-0.115029524,0.9359484325,-1.465976223,-0.5833046436,-0.7406595945,-1.29168129
0.1606692854,0.9935688468,-1.249324938,-0.5556236506,-0.5950322151,-1.250620246
0.3628770343,1.040173654,-0.8993757746,-0.5547552109,-0.4234812558,-1.206866026
0.5787061891,1.032949548,-0.4003098162,-0.5921701193,-0.251208216,-1.163792014
0.8272919507,0.9918474298,0.162327574,-0.647076726,-0.08445706964,-1.121160388
1.025263377,0.9629892919,0.6860808145,-0.6999791861,0.03332328424,-1.078411818
1.206987726,0.9112088357,1.165103517,-0.7482665181,0.08536358178,-1.029791355
1.377204299,0.8141337784,1.536319341,-0.7797028422,0.07816251367,-0.9799730778
1.508945012,0.6460092086,1.802239391,-0.8045168519,0.01935592294,-0.9283120036
1.558120546,0.4600049909,1.900804395,-0.8101710677,-0.07467645407,-0.8791960478
1.566062153,0.2815186016,1.855690411,-0.8109706044,-0.1750366092,-0.835141778
1.480361307,0.1134255959,1.749433684,-0.8078346252,-0.2423121482,-0.7931771278
1.441836346,-0.04494271905,1.631434496,-0.8169261217,-0.2860465944,-0.7438604236
1.358845928,-0.2418187516,1.459279356,-0.8306838274,-0.3281904459,-0.7063316107
1.236855625,-0.4878296942,1.188765548,-0.8549705744,-0.3373892903,-0.6794315577
1.173221942,-0.7101216153,0.9146645292,-0.889656961,-0.3119633794,-0.6549499035
1.136165592,-0.9004542175,0.6332318523,-0.9309434295,-0.2713131607,-0.6283321381
1.109561663,-1.034379288,0.3383639398,-0.9636134505,-0.2229906321,-0.5957427025
1.134802779,-1.183669686,-0.03313420784,-0.9696662426,-0.1733589023,-0.559869945
1.084873504,-1.300961894,-0.4264017043,-0.9392302632,-0.1290658414,-0.5238851905
1.014737307,-1.426818079,-0.8058341521,-0.8735239506,-0.09156241268,-0.4846948683
0.9148983379,-1.569161142,-1.147884671,-0.7663856149,-0.06036167592,-0.452994734
0.9048506989,-1.6983529,-1.405575238,-0.6445976496,-0.0356717743,-0.4205062985
0.8748167952,-1.859248103,-1.485546601,-0.5340265036,-0.03086391836,-0.3749113381
0.8010621154,-2.025152513,-1.461734348,-0.4417833984,-0.03722487763,-0.3364182711
0.6782125653,-2.173491748,-1.412557352,-0.3721447289,-0.03346431255,-0.3040490746
0.4931050042,-2.351235794,-1.320588094,-0.3345805705,-0.03894482926,-0.2801474929
0.3201552062,-2.529553257,-1.218182197,-0.3309742808,-0.03605071083,-0.2755465806
0.1605047425,-2.661056946,-1.173761456,-0.3715725839,-0.01587886363,-0.2840364575
0.01713818181,-2.793527141,-1.180114624,-0.4344111681,0.02463304996,-0.3023293614
-0.09053367288,-2.887086592,-1.300540746,-0.5126825571,0.07837910205,-0.3320931196
-0.1887941406,-2.980087824,-1.546826706,-0.5862349272,0.1711583585,-0.3772365153
-0.2057058202,-3.0404476,-1.872801705,-0.63549757,0.3096432388,-0.4329682291
-0.1035091821,-3.032963674,-2.164828841,-0.6560173035,0.4856006503,-0.4820300341
0.1795686316,-2.939441341,-2.372669627,-0.629112184,0.6991187334,-0.5088073015
0.5299190696,-2.789749669,-2.463846859,-0.5458353162,0.9196128845,-0.5045493841
0.9269856661,-2.567799401,-2.242164594,-0.4311747551,1.033055186,-0.4618768096
1.255349313,-2.224435899,-1.753000436,-0.309235245,1.016679168,-0.3864760101
1.438575883,-1.77520803,-1.112333466,-0.2132905871,0.8250466585,-0.2836314142
1.204429273,-1.342343268,-0.307578341,-0.2400036901,0.347481519,-0.1586900949
0.3972282167,-1.23790908,0.2585106509,-0.4508152604,-0.3119118214,-0.08005013317
-0.9658820907,-1.547700567,-0.07318798581,-0.7322805524,-0.9081767201,-0.1174547151
-2.485565939,-1.956567199,-1.665866343,-0.926048398,-1.330411315,-0.3020546436
-3.511020162,-1.999309339,-4.118616638,-0.9617241621,-1.47883594,-0.5687772632
-3.943345704,-1.489581263,-6.232846342,-0.8890526295,-1.255468845,-0.8134322762
-3.979303444,-0.4160027676,-7.224274377,-0.7961442471,-0.7269044518,-0.9790484905
-3.505015369,0.7693532642,-7.148355505,-0.7446855903,-0.0814525038,-1.042396784
-2.377682195,1.638218457,-6.327058995,-0.7566331625,0.5112632513,-1.014560461
-0.9483484798,2.095614873,-5.123882645,-0.8243957162,0.925039947,-0.921579957
0.2503989484,2.274976438,-3.838672738,-0.9329897761,1.127052307,-0.8041057587
1.034608421,2.39509481,-2.905876925,-1.028017998,1.154836297,-0.6673364639
1.458106805,2.435094519,-2.439976738,-1.065593839,1.074738264,-0.5122305155
1.705061458,2.298319758,-2.402555062,-0.9973880649,0.9837862253,-0.3587450981
1.961152773,2.088153013,-2.612463887,-0.8015791774,0.9520738125,-0.2061028183
2.227446333,1.902567313,-2.769909534,-0.4920663238,0.9991487265,-0.04899655282
2.392112871,1.801539134,-2.584254276,-0.1158532426,1.092914939,0.118651703
2.501141986,1.82739546,-1.961418146,0.270296067,1.219126463,0.2942147553
2.576754276,1.856057491,-0.8615823428,0.5965873599,1.345196605,0.4631876647
2.631081494,1.907021954,0.6117156016,0.8157631159,1.430676579,0.6264418364
2.67415082,1.966770759,2.207602984,0.9052487612,1.444510579,0.7723286152
2.690007146,1.959285956,3.644005906,0.8904133439,1.404167175,0.9001947045
2.648571558,1.901225251,4.713052019,0.8097563982,1.320894241,1.006351471
2.684275324,1.777724251,5.38457064,0.7031367421,1.207832694,1.094387889
2.7760891,1.675261655,5.730771264,0.6012857556,1.069022655,1.185055971
2.917458057,1.572842022,5.84196954,0.518558383,0.9136995077,1.283184171
3.061444503,1.484435278,5.755711644,0.45298177,0.769955337,1.392839313
3.104869803,1.385669491,5.595750215,0.4005412161,0.6384382844,1.513438225
3.139671068,1.304033265,5.380201923,0.3631311655,0.5145068169,1.642406464
3.105402887,1.144774723,5.005660754,0.3618632257,0.3838073909,1.772067785
3.03639131,0.9537062075,4.619833637,0.3924959302,0.2406027764,1.903276086
2.987457184,0.7983489109,4.273157211,0.4440978467,0.05716237426,2.032587767
2.740824602,0.6606922523,3.985824371,0.500225544,-0.1638193429,2.142929316
2.242668014,0.4742107725,3.726329385,0.5630047321,-0.4177334011,2.218558311
1.67481625,0.2071132028,3.401663131,0.617313385,-0.7003837824,2.242230415
1.024307246,-0.1717326773,2.969077185,0.6566352248,-1.022108078,2.206332922
0.4174243248,-0.6104020347,2.452270403,0.6653833389,-1.393220067,2.121574879
-0.009953823259,-0.9912897959,1.783170534,0.6347000003,-1.762073994,1.988383055
-0.2235503967,-1.290129827,0.8931330808,0.6003828645,-2.042167902,1.84122467
-0.1441696937,-1.526642435,-0.2214905416,0.5834374428,-2.171728849,1.689367533
-0.06434241605,-1.642834719,-1.458452842,0.6084752679,-2.114967823,1.542033434
-0.03833995979,-1.677605296,-2.598102769,0.6655766368,-1.866687894,1.420703292
0.1010436687,-1.596319928,-3.328507878,0.7103748322,-1.482099533,1.312071443
0.3431993972,-1.453916952,-3.602047172,0.7217332125,-1.038885117,1.224213481
0.6411605995,-1.285446345,-3.602023206,0.7164391279,-0.5905605555,1.149139524
0.9287669965,-1.105363919,-3.384429672,0.7055047154,-0.2109543979,1.081496596
1.144082649,-0.8606174433,-3.047815206,0.6942542195,0.03869216517,1.018806219
1.347679806,-0.6142493578,-2.624237327,0.6750411391,0.1542323381,0.9523853064
1.497781813,-0.3188163588,-2.266937216,0.6575343609,0.1585945934,0.8835527897
1.493597513,0.02993029723,-2.176765947,0.6644340754,0.08978143334,0.8165268898
1.575205244,0.4196674276,-2.363783726,0.7227159142,-0.01918176562,0.7741577625
1.844715136,0.8034266525,-2.734325011,0.8476623893,-0.11768464,0.7634310722
2.187115492,1.174715103,-3.22794381,1.039646983,-0.1644899696,0.8020424247
2.431412324,1.558259224,-3.643153674,1.281080723,-0.1661195606,0.881111145
2.439068391,1.949566672,-3.833020412,1.545179963,-0.113151677,0.9867235422
2.152952233,2.278380694,-3.795412858,1.794298172,-0.01777961291,1.102578163
1.541061859,2.54246856,-3.399924763,1.973737597,0.08820063621,1.194610834
0.7919681238,2.63870629,-2.666630362,2.054559708,0.1677178293,1.24050808
0.05751403134,2.547704415,-1.837918607,2.033976555,0.2448278517,1.227006912
-0.6558671702,2.424415597,-1.130517942,1.940322042,0.3459307849,1.167208314
-1.243971595,2.35258867,-0.548240616,1.795995831,0.4431562424,1.080496788
-1.625620842,2.324709899,0.01332183839,1.615429282,0.5311814547,0.9776415825
-1.771171176,2.307808156,0.5533540135,1.393326759,0.6372529864,0.8673251271
-1.810435265,2.321165066,1.108576159,1.134510636,0.7392376661,0.7630357146
-1.79549547,2.326929036,1.618340622,0.8487985134,0.823831439,0.6641889811
-1.712392532,2.302196453,2.00143393,0.5620623827,0.893533349,0.569069922
-1.58569975,2.255594569,2.25283621,0.2905584574,0.9330201745,0.4837386012
-1.543094534,2.25067494,2.43790227,0.0248519443,0.9247742295,0.4038546979
-1.467614053,2.251390103,2.594846398,-0.2283673584,0.8693035245,0.3317819834
-1.373815241,2.252020802,2.630125216,-0.4556971788,0.7903969884,0.2619962394
-1.287827395,2.260256716,2.527804659,-0.6499595642,0.6945000887,0.2061521262
-1.076475678,2.266705746,2.325681082,-0.7866569757,0.5805546045,0.1719241142
-0.8891454725,2.219380515,1.979835262,-0.8549306989,0.4655413032,0.1638454795
-0.7393947638,2.121359409,1.625270129,-0.8628405333,0.3518709242,0.183243677
-0.7292728904,1.952361856,1.263649232,-0.820260644,0.2543615103,0.2269534469
-0.9462216969,1.624722432,1.008293245,-0.7469667196,0.1612155735,0.2707286179
-1.506677067,1.228963411,0.888358706,-0.6661453843,0.08849538863,0.2908362448
-2.329115148,0.9808942203,1.059404424,-0.6379619241,-0.01290580258,0.2593773901
-3.682028179,0.9475999996,1.62166772,-0.7763277292,-0.2559174001,0.1237762198
-5.163251363,0.8619508838,2.26970142,-1.107578158,-0.6285594106,-0.1352406889
-6.077851595,0.5754886884,2.460346157,-1.545819163,-1.040574551,-0.4955005944
-6.28173283,0.2918307367,1.804302754,-1.945830822,-1.373384714,-0.8726187944
-5.857175877,0.2884916554,0.3308750454,-2.210915089,-1.553025484,-1.166805148
-5.050281986,0.7060717553,-1.678158838,-2.292676687,-1.551823497,-1.311518073
-4.309531132,1.237082566,-3.723459967,-2.176929951,-1.341381192,-1.307190776
-3.736091485,1.559264602,-5.299958173,-1.88919878,-0.9291139841,-1.187750459
-3.506348956,1.645106463,-6.122258307,-1.495582581,-0.436013937,-1.021909833
-3.657114979,1.619234063,-5.913963347,-1.122610331,-0.04257370532,-0.8786677122
-3.823742004,1.498483093,-4.780824409,-0.8651383519,0.1888057441,-0.7954753637
-3.830289818,1.176134103,-3.37388782,-0.7163046598,0.3278472424,-0.7868696451
-3.707181617,0.7744060906,-2.201613972,-0.6040394306,0.4576393366,-0.8254882097
-3.462056517,0.457004567,-1.216710955,-0.49597314,0.5880910754,-0.8965269923
-2.876925556,0.2500564916,-0.2414747605,-0.4068098068,0.7071862817,-0.9715144634
-1.997792066,0.2524471131,0.838864315,-0.3366533518,0.7988144755,-1.019512653
-0.9472963404,0.3672719083,1.831108927,-0.2796361744,0.81644696,-1.013582587
-0.06239829625,0.4181690788,2.645675837,-0.2215068191,0.7380565405,-0.9641103745
0.5725412368,0.4688460306,3.277942059,-0.1605479121,0.59482795,-0.8896867633
0.8300093929,0.4850577452,3.70745225,-0.09390710294,0.4090016484,-0.8179633021
0.7374021286,0.4204087475,4.02370665,-0.03664769977,0.1992009133,-0.7663664222
0.6025842006,0.2254359182,4.253852791,0.01146337204,-0.04083326459,-0.7555356026
0.5733452466,-0.02724251945,4.435089649,0.03466581181,-0.2880433798,-0.7792153955
0.5912593812,-0.2464806059,4.545578314,0.02938422747,-0.5668851137,-0.8220755458
0.6855369168,-0.3945784329,4.474477656,-0.007069797721,-0.8637427092,-0.8791812062
0.8410609483,-0.4912982471,4.176449818,-0.06554189324,-1.136021137,-0.9297218919
1.0085291,-0.5266472083,3.778111595,-0.1538529098,-1.342543244,-0.9621462822
1.01207744,-0.4871652389,3.372169325,-0.2889116704,-1.450536609,-0.9791324735
0.7901309715,-0.4170847176,2.910507507,-0.4582228959,-1.451088786,-0.998573184
0.4364496355,-0.3583475742,2.375443768,-0.6609360576,-1.357555151,-1.023107767
0.08019348066,-0.3170570941,1.813226649,-0.8696983457,-1.206675887,-1.065157294
-0.1089779689,-0.3254392841,1.226685821,-1.061265707,-1.010970592,-1.115303993
-0.2361456744,-0.3493265748,0.6005477263,-1.208671689,-0.8069375157,-1.168374777
-0.2596171509,-0.3093916009,0.1148702418,-1.314736605,-0.6266726851,-1.221817493
-0.1241892742,-0.1899965022,-0.2620201204,-1.379204869,-0.4881492853,-1.267446637
0.1773597234,-0.05211962495,-0.5589975723,-1.401584744,-0.3845781684,-1.28552711
0.5729027636,0.1273651278,-0.8327443708,-1.376619697,-0.3165130019,-1.266610503
0.9528536823,0.2790526498,-1.108299096,-1.304840803,-0.2822751403,-1.218119979
1.256463996,0.3939265449,-1.359675657,-1.183687687,-0.2655850649,-1.140511513
1.504519889,0.4536305605,-1.504154855,-1.03519547,-0.2508252859,-1.046810865
1.731004293,0.4457026171,-1.537441038,-0.8752976656,-0.2328270376,-0.9371297956
1.867979399,0.3271967953,-1.450378841,-0.7291519046,-0.1938372999,-0.8266477585
1.927413293,0.1626395625,-1.201792787,-0.6233708262,-0.1492795944,-0.715988934
1.892995767,-0.0231608031,-0.8357213408,-0.5611370206,-0.1100496352,-0.6193004847
1.78651926,-0.2204530152,-0.5103507381,-0.5331184864,-0.07541067153,-0.5427578688
1.675484651,-0.4692221705,-0.2716232305,-0.5223366618,-0.04021007568,-0.4888520539
1.608522407,-0.7193775194,-0.1136100126,-0.5158156753,-0.01868888736,-0.4451569617
1.634478102,-0.8752430577,-0.01235094753,-0.5276079178,-0.006991752423,-0.405222863
1.803376871,-0.9668038817,0.02595452547,-0.5362864733,0.005301367957,-0.3486212492
1.967418263,-1.017856462,-0.04624912548,-0.5280679464,0.01606320217,-0.2740295827
2.017265705,-1.06924675,-0.200406837,-0.4969636202,-0.001898927148,-0.189595744
2.048476252,-1.171004558,-0.3975584716,-0.4414502978,-0.05503831059,-0.09930633008
2.075792129,-1.281524057,-0.6276467457,-0.3739757538,-0.1352832317,-0.002550991485
1.991726775,-1.444490075,-0.8711983124,-0.297853291,-0.2245175093,0.09275794774
1.780074906,-1.619772992,-1.216240999,-0.2098522782,-0.3197703362,0.1782431901
1.571544091,-1.772136076,-1.584421401,-0.1166770458,-0.4088280499,0.250518173
1.29719202,-1.919878806,-1.893560415,-0.02310155518,-0.4861519635,0.3056025803
0.9087471218,-2.029787772,-2.281453817,0.07225159556,-0.5093342662,0.34753111
0.511217584,-2.169577497,-2.614112239,0.1730254292,-0.4787814021,0.379997313
0.0753252901,-2.335034163,-2.877052397,0.2691162825,-0.4153252244,0.3896816075
-0.4714078439,-2.524796418,-3.099845253,0.3533861339,-0.317150712,0.3613905311
-1.027934935,-2.694475231,-3.241882903,0.4250081182,-0.1674536318,0.2971383035
-1.420984404,-2.775069986,-3.247731629,0.470438987,0.0001615504734,0.2069929242
-1.699351264,-2.75687382,-3.169118696,0.4983497262,0.1845921129,0.1012555733
-1.776061579,-2.560262868,-3.012775457,0.5098552704,0.3886807561,-0.009852902032
-1.613589043,-2.243412256,-2.818746923,0.519766748,0.6258149743,-0.09191607684
-1.162613454,-1.92702327,-2.596597041,0.5570874214,0.9022639394,-0.132485956
-0.7693275452,-1.633110028,-2.230699782,0.6382709742,1.16380477,-0.1363363564
-0.6057450027,-1.257481357,-1.600237394,0.7297560573,1.333093762,-0.1190019026
-0.4667658634,-0.7781668313,-0.810839413,0.792173624,1.342995405,-0.09781805426
-0.2780602778,-0.1936433342,0.03251227655,0.7944333553,1.173046947,-0.06650725007
-0.1743663868,0.3355973977,0.848089824,0.661888361,0.7398153543,-0.002974610543
-0.2947995234,0.7251961425,1.472061681,0.3768413663,0.117457293,0.08194548637
-0.7305860189,0.8092214564,1.325091835,0.05946714804,-0.3983285725,0.1601372212
-1.490569397,0.590027063,-0.04624971,-0.1209635809,-0.6314117312,0.180394426
-2.432720776,0.3172382228,-1.862224197,-0.1236967817,-0.6512773037,0.08971006423
-3.007360446,0.3067009736,-3.275276054,-0.03185728937,-0.5469955802,-0.0769552812
-2.783058354,0.627212592,-3.775509303,0.04701488838,-0.3880757093,-0.2357656956
-1.841930181,1.081228279,-3.580090776,0.0538318418,-0.2436903268,-0.3034714162
-0.6436202676,1.530444019,-3.167632841,0.02344304323,-0.1274968684,-0.244898662
0.2803524804,1.857575786,-2.911535681,-0.004065244459,-0.02406006679,-0.09776180983
0.7126432427,2.010699771,-2.816932567,-0.009363071062,0.07469020784,0.07625952363
0.7267302202,1.919882605,-2.735797422,0.002064517699,0.1635778397,0.2207292169
0.5677171776,1.593208957,-2.672893514,0.04907969758,0.2509652376,0.3080196679
0.5447603727,1.209275983,-2.703994755,0.1557361335,0.340855062,0.3512330353
0.5922802487,1.003450189,-2.71870834,0.3227499127,0.4418019056,0.3571212888
0.7801903,1.036827412,-2.516958271,0.5256992579,0.6021025181,0.3681620657
1.102297517,1.28723469,-2.003613612,0.7441402674,0.7897064686,0.4023248255
1.389582719,1.580544267,-1.260754095,0.9556370378,0.97429353,0.4539097846
1.698576188,1.889822836,-0.2746037076,1.142284393,1.124450803,0.5175631046
2.033440887,2.157895242,0.8824854301,1.272052884,1.233500957,0.6039963365
2.308371927,2.351137887,2.086626826,1.33377862,1.280486107,0.6997731924
2.416334874,2.484223876,3.208842804,1.331488729,1.264276862,0.7872365117
2.414772447,2.526342478,4.118590335,1.286156416,1.190922499,0.8685097694
2.373137829,2.466976389,4.786944938,1.217871428,1.064715385,0.9344919324
2.345818153,2.345262565,5.157723539,1.148349881,0.8892527819,0.9839689136
2.293550498,2.21688183,5.255813911,1.097666621,0.682893157,1.017821908
2.130464507,2.096474413,5.196981783,1.059105992,0.469601661,1.033379912
1.92874571,1.990297034,5.129965764,1.00058496,0.2683164477,1.036133647
1.697538954,1.835461131,5.057186943,0.9015052915,0.07539679855,1.022814393
1.51687902,1.65779015,4.982356451,0.743776679,-0.07789637148,1.006918788
1.384729434,1.474837429,4.791283844,0.5474559069,-0.1937297583,0.9911806583
1.226592882,1.220512831,4.340853614,0.34490785,-0.2787917554,0.9768060446
1.048490816,0.9251796396,3.703438923,0.151675269,-0.3396977186,0.9516202807
0.9339686568,0.5865137942,2.965871667,-0.01538395416,-0.3760975599,0.9223405719
0.8381126199,0.1996013658,2.21584825,-0.153966859,-0.4040064216,0.8867173195
0.583402238,-0.1514525442,1.423832779,-0.2601990998,-0.4471457899,0.8185167909
0.192855691,-0.4840070671,0.5825608187,-0.3237266839,-0.5116113424,0.7111903429
-0.1189730009,-0.7796456717,-0.3701233522,-0.3255398571,-0.6180326343,0.5720843077
-0.1559232599,-0.9498178217,-1.433650994,-0.2734686732,-0.7482444048,0.4425271153
-0.008714344592,-0.9947006273,-2.526756027,-0.1505260319,-0.870924592,0.3329846263
0.2136161549,-0.8857586065,-3.548088787,0.02084545232,-0.9250320196,0.2624236345
0.4364230398,-0.6669849227,-4.376090347,0.2306036055,-0.8837130666,0.2377807051
0.5864589952,-0.452395685,-4.954678171,0.4487109184,-0.7650843859,0.2431520373
0.6208136848,-0.3135644296,-5.233547134,0.6516135335,-0.5800516605,0.2678124011
0.5974231646,-0.220374397,-5.17551697,0.8054621816,-0.3588423133,0.2860199213
0.5027501999,-0.08000365717,-4.841963061,0.9093337655,-0.1335144788,0.3028714359
0.4576277404,0.009773644387,-4.346683635,0.9462893605,0.0762565881,0.3133136928
0.430759315,0.06586392653,-3.802960789,0.9409110546,0.2579272687,0.3179228902
0.4357230748,0.1119336038,-3.278646408,0.9239957333,0.4212269783,0.319861412
0.4968406836,0.2084105491,-2.871623942,0.9221275449,0.5532693863,0.327155292
0.6282233765,0.3855778187,-2.505820207,0.932559967,0.6466978788,0.3500712812
0.8241454693,0.5695046456,-2.114205738,0.9639714956,0.6822420955,0.3964693546
1.037590944,0.7064864736,-1.740631953,1.004915953,0.6852772832,0.4589569867
1.186226385,0.826462368,-1.414115688,1.057603955,0.668166995,0.5347089767
1.161378067,0.8712827758,-1.118536996,1.103005767,0.6536381245,0.610286057
1.045891155,0.8665867269,-0.7878606885,1.129646182,0.6306888461,0.6769415736
0.8578799811,0.8131775006,-0.4416016115,1.133758664,0.6049698591,0.7251005769
0.6437082381,0.7629629786,-0.1287842008,1.108430982,0.58950454,0.760848403
0.4585039387,0.708304629,0.1696013644,1.065074682,0.5827866793,0.7859979868
0.2947235356,0.617955665,0.4008370549,1.015405178,0.5756396055,0.7956255078
0.1559033862,0.5063417947,0.582900426,0.9550922513,0.5590060353,0.7942020297
0.03069382895,0.4094359564,0.8031564573,0.8950302005,0.5273542404,0.7856256366
-0.07685206127,0.3129419138,0.9584639234,0.8399275541,0.4808584154,0.766023159
-0.1694280536,0.2267445166,1.086956448,0.7854710817,0.4235241413,0.7388647199
-0.2375605096,0.1669832908,1.227699382,0.7294605374,0.3622892797,0.7066615224
-0.2976318242,0.1161693417,1.378139534,0.6603562832,0.2849021554,0.674485743
-0.3506628649,0.116871937,1.580436715,0.5628723502,0.196508646,0.6312831044
-0.3649342591,0.1663727577,1.732633356,0.430059433,0.133779943,0.5903860331
-0.3336041781,0.1994768627,1.813363427,0.2756096721,0.09785975516,0.5504050851
-0.3442714103,0.2929629556,1.823514819,0.1003231779,0.1054976732,0.5141694546
-0.3556196106,0.4258338412,1.733455193,-0.06142950058,0.1601204425,0.4850051701
-0.3368120342,0.5345818007,1.522465588,-0.1642182469,0.2256461978,0.4764952362
-0.2699561741,0.5575833216,1.226987434,-0.1892442405,0.2843755484,0.4821499288
-0.1829226182,0.4956827458,1.007555579,-0.1276441216,0.3150613308,0.4979170263
-0.2027279734,0.2745464245,0.9257873962,0.006831932813,0.2847495079,0.5064588189
-0.5019055658,-0.001248538756,1.012366194,0.1710444391,0.2186647207,0.4913154542
-0.8518848324,-0.1678133119,1.478179871,0.2769418359,0.1388814747,0.4393361509
-1.398622935,-0.2228814114,2.506805711,0.1718358546,-0.04186208546,0.3439098299
-2.338767942,-0.1404743464,3.881849032,-0.284662962,-0.4404193163,0.1827387959
-3.505143964,-0.1213552199,4.81653519,-1.038624883,-0.9373354912,-0.07870487869
-4.637783135,-0.435726582,4.414495773,-1.826894164,-1.31274879,-0.436417222
-5.275668366,-0.6814698135,2.293976614,-2.393316031,-1.490392447,-0.8011239767
-5.074884513,-0.5115262116,-1.129146653,-2.593127012,-1.527255058,-1.059859633
-4.554083985,0.018745617,-5.046353999,-2.374068737,-1.384748936,-1.160416484
-4.321952807,0.6792480458,-8.313885723,-1.782646656,-0.9174283147,-1.119574547
-4.360923465,1.27391972,-9.817325708,-0.9965285659,-0.2278835475,-0.9891786575
-4.48178944,1.704341035,-9.414733918,-0.2219990343,0.3316889405,-0.8145333529
-4.670805115,1.858601622,-7.507686245,0.324960649,0.5309148431,-0.6705917716
-4.665812713,1.599863592,-4.703009933,0.5631301403,0.4673216939,-0.6272554398
-4.788324702,1.141110793,-2.167002678,0.5526123047,0.307656914,-0.7051157951
-5.078803732,0.7357768655,-0.3584504501,0.4142727554,0.180765301,-0.8927711844
-4.911787123,0.4974610075,0.6723340287,0.2686263919,0.1978685409,-1.115779638
-4.053120668,0.5119448754,1.30241297,0.1528406739,0.3465158045,-1.30700469
-2.804888493,0.863724031,1.830560061,0.06957615167,0.5324813128,-1.409736872
-1.556856518,1.266802435,2.395439093,0.02325579338,0.7025840282,-1.418161988
-0.6013976212,1.606642877,2.983502601,0.003594770096,0.8057096601,-1.36899817
-0.03880728504,1.851880205,3.578150748,0.008928282186,0.8253483176,-1.295583129
0.1783390898,1.925061469,4.063877332,0.03587745875,0.7687455416,-1.231600404
0.1213625264,1.866587945,4.376763132,0.07986728847,0.660685122,-1.207551003
-0.05170622184,1.756380142,4.619149162,0.1346913278,0.4953427911,-1.218297839
-0.1555821914,1.585828345,4.683588609,0.2021539956,0.2658995092,-1.26120007
-0.06439326946,1.507547712,4.664669973,0.2740622759,0.007225844078,-1.30510807
0.08480535837,1.488196531,4.684269577,0.3240660429,-0.2550278902,-1.347579956
0.1770738922,1.559221493,4.877907066,0.2921263278,-0.4986792803,-1.391587138
0.3067307842,1.630976523,5.06388498,0.1708768904,-0.7069893479,-1.427775741
0.4958279995,1.649589746,5.039417478,-0.01420108415,-0.8616316915,-1.445075274
0.658165218,1.654517558,4.786573767,-0.2368504107,-0.9448174238,-1.440903783
0.6298620836,1.649295732,4.402755651,-0.5005076528,-0.9651682973,-1.436472654
0.5907885489,1.671425146,4.006391942,-0.7959119081,-0.9268614054,-1.439852476
0.6247644682,1.684579811,3.554452477,-1.109507322,-0.8272132277,-1.442134738
0.717271487,1.757568475,3.012531711,-1.411236882,-0.6870340109,-1.422289371
0.8224602927,1.82257783,2.411591186,-1.674234986,-0.5402634144,-1.388897538
0.9085127285,1.832243777,1.711696951,-1.865228176,-0.3916691542,-1.346393704
1.013880982,1.814739684,1.007433998,-1.979539275,-0.2686500251,-1.292626619
1.256010992,1.799506752,0.3153577428,-2.000818253,-0.2042244226,-1.220050931
1.594856286,1.759411034,-0.4473591521,-1.925197482,-0.2094569951,-1.120720148
1.901469873,1.698041058,-1.173667932,-1.76394999,-0.276527375,-0.987835288
1.971138453,1.591403661,-1.735100623,-1.575944424,-0.3766188323,-0.8506276608
1.786937193,1.42691321,-2.159219769,-1.388835549,-0.4788575768,-0.7275946736
1.65863873,1.186703939,-2.514375269,-1.222034454,-0.5560813546,-0.6170709133
1.502040347,0.88928152,-2.818471613,-1.092731595,-0.5638881922,-0.5209033489
1.258297934,0.6285670754,-3.135160897,-1.000599146,-0.5041063428,-0.4429450631
1.058633732,0.3219698544,-3.483213871,-0.9268062115,-0.3613489568,-0.3854596615
0.8109560251,-0.008354132978,-3.817356979,-0.8692880273,-0.1296423078,-0.3443949819
0.4871753219,-0.3674886198,-4.017491429,-0.8334972858,0.1511835158,-0.3248122036
0.1508887729,-0.7269406481,-4.096649136,-0.828461349,0.4458457232,-0.3308630288
0.03598959727,-1.07496089,-4.067151239,-0.83248806,0.7270313501,-0.3467157781
0.2290954636,-1.352226802,-3.947361077,-0.833404839,0.9564868808,-0.3479116559
0.5315387798,-1.486853153,-3.84944723,-0.7976713777,1.141623497,-0.3178901076
0.6631964902,-1.54538849,-3.774389944,-0.7225440741,1.292400956,-0.2552055717
0.7258411624,-1.630759958,-3.639102352,-0.6163912416,1.367761254,-0.1765325963
0.7518550169,-1.776439326,-3.448784363,-0.4898615479,1.394476771,-0.09528850019
0.5974637888,-1.954373634,-3.175160314,-0.3493923247,1.385280371,-0.02971747518
0.2635983295,-2.096379866,-2.903546436,-0.2015745044,1.343566895,0.01096522901
-0.02188011564,-2.238516155,-2.651018951,-0.04662567005,1.294125319,0.03564447537
-0.133781863,-2.345426085,-2.382436988,0.1080469638,1.250696421,0.06233996525
-0.2840183094,-2.369269025,-2.008387402,0.2390321493,1.211190224,0.08903282136
-0.4871460958,-2.39325795,-1.591797483,0.3545620739,1.182586074,0.1195800155
-0.6929471931,-2.461010759,-1.274945117,0.4720436931,1.162503958,0.1472992748
-0.935349882,-2.519388129,-0.9155909964,0.5780662298,1.143386841,0.1649952531
-1.173473286,-2.550157361,-0.5277940403,0.6780359149,1.144320726,0.1659896821
-1.466211493,-2.558212073,-0.1228694238,0.7648282051,1.159876823,0.1427146196
-1.600814171,-2.588208275,0.4056120142,0.8193740249,1.16844821,0.106120117
-1.727177136,-2.531115684,1.037376132,0.8295508027,1.157756686,0.06109186634
-1.649177951,-2.466522215,1.6166496,0.7834711671,1.127696514,0.006643541157
-1.448875597,-2.432994186,2.147640975,0.6856528521,1.075515985,-0.05374315381
-1.052384024,-2.35945651,2.553515439,0.5189980865,1.037066102,-0.118325606
-1.155230504,-2.318724979,2.555480017,0.2920806408,1.052641034,-0.1752374768
-0.6647347326,-2.282101614,2.784197588,0.004341043998,1.156330824,-0.2310065627
-0.1784772562,-2.262394604,2.826184379,-0.3421729803,1.344188333,-0.2919940352
0.3132780139,-2.285168162,2.681815071,-0.743470788,1.611854792,-0.3801980317
0.7557007325,-2.167216613,2.440228083,-1.146496892,1.920582891,-0.4766771793
1.305974754,-1.972847887,1.999089997,-1.496727705,2.257643223,-0.5156500936
2.317139902,-1.683996458,1.323034902,-1.695564628,2.610101223,-0.4139439464
3.905641704,-1.345102357,0.2890069115,-1.703805566,2.915141344,-0.1829902679
5.569181357,-1.021149877,-0.9465548744,-1.535385132,3.090177774,0.1230631247
6.699433926,-0.7343907449,-2.029477537,-1.247966528,3.004870415,0.4883772433
7.186418986,-0.6084396486,-2.59843127,-0.8564490676,2.656080723,0.9487688541
7.367275319,-0.1107812919,-3.085873426,-0.3841513991,2.068225384,1.431577325
6.810964794,0.4291581634,-3.345117068,0.1150855497,1.356742978,1.859008312
5.417882542,0.7706644198,-3.674442546,0.5722634196,0.5978733301,2.106042385
3.491890514,0.8767890451,-3.870060395,0.9789347649,-0.1648291051,2.023770809
0.7534956237,0.5495820937,-4.24634227,1.380337358,-0.8356124163,1.654653192
-1.623448904,-0.1422523158,-4.889204705,1.72504735,-1.328929305,1.161983013
-2.467067574,-0.6275603826,-5.262617162,1.89358449,-1.582882166,0.7254850268
-2.234449928,-0.5035431039,-5.066627556,1.833400488,-1.533129454,0.4486041367
-1.440614695,0.3226557908,-4.272741616,1.566981077,-1.215740561,0.3096932173
-0.7759226326,1.306091805,-3.39754459,1.181207895,-0.7031434178,0.2811710238
-0.3864456876,2.108502412,-2.727610608,0.7826263309,-0.08163791895,0.3343429565
-0.1306781248,2.612407773,-2.369598549,0.4565512538,0.5207805634,0.4425266981
0.01498706819,2.864920645,-2.233250051,0.2659663856,1.039929509,0.5677984357
-0.03110357879,2.917116988,-2.276510516,0.2258775532,1.423014641,0.6736018658
-0.3473344512,2.806947472,-2.259129757,0.3263165057,1.686064839,0.7536919117
-0.6989502329,2.658101311,-2.005982095,0.5267663002,1.83058393,0.8146183491
-1.034449285,2.663246272,-1.484832899,0.7848186493,1.858580828,0.8672560453
-1.345803199,2.776175025,-0.7072884377,1.050521731,1.793678522,0.904620707
-1.666893056,2.947036034,0.2614274152,1.274070621,1.659516335,0.9335829616
-1.795041297,3.130897979,1.411961724,1.424474478,1.476972699,0.9542341828
-1.706612633,3.260422184,2.635527368,1.477110624,1.258734703,0.9569308162
-1.585133933,3.267367473,3.847384453,1.438086033,1.029706836,0.952963531
-1.395879043,3.230980109,4.916005033,1.327225327,0.7931804657,0.9354054928
-1.203773001,3.118449124,5.793843514,1.17393434,0.5613483191,0.9031758904
-1.090867922,3.007604776,6.330263929,1.014755368,0.3771194518,0.8688833714
-0.8681756036,2.898653988,6.544558421,0.8658912778,0.2295571715,0.837220788
-0.7675747102,2.801858624,6.499456712,0.7137764096,0.1225818843,0.7975434661
-0.7382185596,2.700919877,6.397629492,0.5446851254,0.04770923778,0.7513810396
-0.8134783832,2.628188987,6.329546136,0.3819738626,-0.01564360596,0.6923612952
-0.8670216112,2.528242759,6.219954127,0.24525249,-0.07904388011,0.6389102936
-0.7889350397,2.494991939,6.049475395,0.1434696913,-0.1569154263,0.6054692268
-0.795508719,2.734540992,5.699064459,0.07304559648,-0.2523687184,0.5925036669
-0.7797028087,2.886647616,5.593108761,0.02255632728,-0.3706042767,0.601347208
-0.6054506959,2.932489622,5.6597577,-0.03546803445,-0.5539083481,0.620043993
-0.4831779228,2.88727247,5.772675639,-0.08513305336,-0.8379557729,0.6074442863
-0.6127841076,2.9186347,5.735610521,-0.09638547897,-1.278843999,0.5535496473
-0.8488352355,3.124352502,5.582182293,-0.03281022608,-1.873996258,0.4895173609
-0.7123468901,3.308472514,5.108025735,0.1227539182,-2.506688595,0.4924277365
-0.2772154245,3.694422381,4.532051309,0.3189409971,-3.020539522,0.6229127645
-0.172384127,3.894618498,4.148841096,0.4930568933,-3.243834734,0.7724059224
-1.359285488,3.633646717,4.188540654,0.4759689867,-3.265417814,0.8151320815
-2.01384406,3.249236481,4.885153383,0.2202097774,-3.310696125,0.752420485
-2.149700976,2.780806776,5.149679349,-0.1675115824,-3.388669491,0.6420329809
-2.197618911,2.15330733,4.573248412,-0.607909143,-3.397330284,0.5593990684
-2.23353632,1.728812336,3.343525999,-1.050100923,-3.229438543,0.5295168161
-2.424864217,1.624886974,1.664991898,-1.415936828,-2.874561548,0.5233721137
-2.397728373,1.445109376,-0.2620411631,-1.643473506,-2.42441535,0.522508204
-2.335700225,0.9508397121,-2.051678263,-1.757392764,-1.954556227,0.5024384856
-2.313991959,0.2513563953,-3.442385602,-1.818431616,-1.497951388,0.4329710305
-2.262576391,-0.5471984135,-4.549008873,-1.846115947,-1.082269669,0.3177735209
-1.994584941,-1.228334173,-5.560171537,-1.839520097,-0.6721463799,0.1881292462
-1.40524849,-1.756965248,-6.31704029,-1.829323649,-0.3392401636,0.07167634368
-0.8521616035,-2.24213946,-6.865073401,-1.817507148,-0.05597914755,-0.03597741947
-0.3983291637,-2.67566707,-7.338040457,-1.810905457,0.2383684069,-0.1333599091
0.1195408639,-2.960578237,-7.723264932,-1.780902267,0.5248401165,-0.209995836
0.6009276656,-3.084507107,-7.979206609,-1.683767319,0.7629751563,-0.2687032819
1.053714688,-3.136679485,-8.062548325,-1.503632784,0.9287161827,-0.3102376759
1.441297563,-3.081888156,-7.843689885,-1.263086438,1.023872495,-0.329508245
1.643597374,-2.882696248,-7.287338444,-0.9859054685,1.060428977,-0.3209403455
1.685606816,-2.797057069,-6.322868558,-0.6987557411,0.9361116886,-0.3208115101
1.531594504,-2.818490902,-4.980302441,-0.437976867,0.6658679843,-0.3730344772
1.275603873,-2.808686132,-3.555892739,-0.2148776203,0.2876173854,-0.4333845377
1.222926615,-2.552402217,-2.404665187,-0.01358711068,-0.1595830023,-0.4486380816
1.318522393,-1.84505825,-1.704011657,0.1604929566,-0.6550726295,-0.3506384194
1.513800051,-1.232684185,-1.221222295,0.3239894509,-1.015470266,-0.1427379698
1.503039587,-1.196380115,-0.8029962983,0.4665926993,-1.22334528,0.1490373313
1.101502713,-1.054706914,-0.3972562738,0.6185739636,-1.499020576,0.4188352525
-0.1697653228,-0.9772184544,-0.214252407,0.7567374706,-1.579904437,0.6181234121
-1.295810795,-0.7969988115,0.145117496,0.7710961699,-1.396382332,0.871920526
-0.9022717883,1.153016481,1.549040291,0.4974839985,-1.344273686,1.456100106
-1.238181613,2.090964125,2.827239441,0.03141536564,-1.354348898,1.805429816
-2.043058318,-0.4323781483,3.458102811,-0.456129849,-1.520616651,1.964881897
-2.390444938,-1.804062077,4.510868235,-0.8284376264,-1.501903176,1.722046614
-4.124382362,-3.681495971,3.960561919,-1.004815936,-1.263737321,1.06749022
-4.313371148,-4.722607783,2.971712794,-1.132219195,-0.8634262681,0.1649629623
-3.584165186,-4.36713138,1.954604374,-1.386214137,-0.5511605144,-0.8877300024
-3.218555512,-2.546688808,-0.04684183067,-1.889957666,-0.5095545053,-1.535021663
-2.288159745,0.1598377299,-2.13164378,-2.285832405,-0.3639714718,-1.529999018
-1.063970124,2.289346616,-6.848878637,-2.194378376,0.0957378,-1.286807418
-0.232650818,3.255461347,-11.57013617,-1.615671515,0.7820712924,-0.985424161
-0.01090513263,3.446258059,-13.4017285,-0.7557244897,1.343314886,-0.7343384027
-0.4286231797,3.211058142,-12.29649347,0.1113075912,1.673462868,-0.6103941798
-0.960128934,2.435987961,-9.3832504,0.7744288445,1.74437356,-0.6163297892
-1.271456544,1.521771468,-5.780347489,1.067892313,1.555229664,-0.7224569917
-1.165342441,0.8076303148,-2.422783027,1.023391247,1.224986792,-0.8892340064
-0.7684174446,0.3178882842,-0.2595119369,0.8356442451,0.9666673541,-1.043704271
-0.4947054252,0.3549025483,0.8164198435,0.6403562427,0.8190544844,-1.161168814
-0.3698082949,0.8076140212,1.142491873,0.5332017541,0.761230886,-1.232124686
-0.1976145759,1.147163664,1.245367725,0.4826948941,0.7908226252,-1.277097225
-0.06636836892,1.340293788,1.671864706,0.432700336,0.8485167027,-1.298905253
0.1371589382,1.501452318,2.276404717,0.3788839877,0.8923848271,-1.312008262
0.4474399622,1.598050844,2.759581033,0.3316744566,0.8846012354,-1.313717246
0.6936966963,1.693472289,2.94435074,0.3167722225,0.8896846771,-1.303392649
0.6246598388,1.761976939,3.146779438,0.3245410025,0.8871002793,-1.279507518
0.9801254278,1.817886312,3.373753964,0.3364027143,0.8478175998,-1.189388514
1.164791894,1.89353908,3.617885961,0.3125919104,0.7598298192,-1.096992612
0.777115861,1.629970123,3.782118492,0.285752058,0.6534823179,-1.037371874
0.6923571182,1.153369387,3.566372632,0.2886073589,0.5247823596,-1.026911974
0.533266115,0.9049119276,3.291154592,0.287679255,0.3761771917,-1.047896862
0.4686051345,0.758258308,3.001282003,0.2795148194,0.2291785926,-1.056723714
0.4794657705,0.7308138363,2.656445068,0.2578254938,0.101748459,-1.045991182
0.3837932734,0.712870914,2.313318444,0.2343935072,-0.01025915332,-1.019991636
0.3110600456,0.6749401195,1.900239747,0.2071962357,-0.1000561491,-0.9914838076
0.254148291,0.6341676719,1.492408888,0.1881367564,-0.132616654,-0.9594174027
0.0271125364,0.6139290398,1.117518175,0.1489187777,-0.1054558828,-0.9490768909
-0.1717440024,0.4925115684,0.9131482794,0.0747385174,0.0001249816269,-0.9497328997
-0.1380045952,0.3932198579,0.9055325437,-0.04492716491,0.1879774481,-0.9475509524
0.09105996178,0.3877313435,1.046734912,-0.1951289773,0.4016462266,-0.9158815145
0.4443489374,0.4185958528,1.125315697,-0.3195616901,0.5870864391,-0.8533629775
0.7764824585,0.4342690766,1.092495377,-0.3924623728,0.7173597217,-0.764385581
1.033143901,0.4107952621,1.090004145,-0.4268363416,0.775927186,-0.676325202
1.221801629,0.3503983688,1.096177281,-0.4193460643,0.7572642565,-0.5837594271
1.402689454,0.2499810153,0.9986533104,-0.3697896898,0.6879584193,-0.4917221665
1.595072705,0.1914599988,0.9450824638,-0.3036051095,0.6104612947,-0.3872832358
1.651003705,0.1678869617,0.9816168354,-0.2500907481,0.5069021583,-0.2744272351
1.565120196,0.07365253458,0.9951619612,-0.1999271959,0.4010846913,-0.1627619863
1.41671418,-0.07001783134,0.9296259514,-0.1473742276,0.3002411723,-0.06405165046
1.210912132,-0.1886994481,0.8857043921,-0.1145809889,0.2037044466,0.02775676548
1.00805571,-0.3003980741,0.8543746034,-0.1098775789,0.1447796077,0.1130405068
0.832622498,-0.3955601374,0.8368027063,-0.1168612167,0.1318056583,0.1943985373
0.6842571792,-0.488455571,0.7377537185,-0.1191800311,0.1427121013,0.2656079829
0.4637718692,-0.6074009532,0.5720429319,-0.1114877909,0.1704664379,0.3219647706
0.3366978333,-0.7556776439,0.4499661197,-0.1004473865,0.2009780109,0.3737131953
0.2568124687,-0.8674990195,0.4937649294,-0.1125024557,0.2094646096,0.4207194448
0.2208724097,-0.9893938992,0.6484954724,-0.14398022,0.1815392375,0.4616743326
0.1416249777,-1.129984127,0.65610887,-0.1629575044,0.1418724805,0.4948065877
0.03275719122,-1.264749302,0.5153028075,-0.1685975492,0.1028888524,0.5126960874
-0.08480133978,-1.374167708,0.4513409152,-0.1936598569,0.07951708138,0.5224542618
-0.1901696668,-1.472225931,0.4211749095,-0.2218827158,0.07417345047,0.5200283527
-0.2332145894,-1.535732773,0.2038397341,-0.2371298075,0.08922446519,0.5117040277
-0.2594970316,-1.572363006,-0.1573036083,-0.2268351018,0.1199560091,0.5027398467
-0.3357962813,-1.51668452,-0.4967050745,-0.2015321106,0.1616317183,0.4973768294
-0.3390694578,-1.403467598,-0.5922399167,-0.1744275242,0.2160430402,0.5025652051
-0.2935553686,-1.295150432,-0.5426765521,-0.1703061759,0.2696122825,0.5077371001
-0.3086559801,-1.241043432,-0.3755968152,-0.1990262419,0.2968401909,0.5013974309
-0.4078568705,-1.207554127,-0.2114554698,-0.2532909811,0.3234421313,0.4701154232
-0.5740457231,-1.19792486,-0.1382259829,-0.3278986514,0.3571542799,0.4104496837
-0.6884097689,-1.224309155,-0.2772539298,-0.4080019295,0.4213017225,0.3440298438
-0.4598804878,-1.010108624,-0.3620207098,-0.5102270842,0.4977818727,0.3078736961
-0.2144573185,-0.5926351996,-0.5725602337,-0.6000587344,0.5905480385,0.3008396626
-0.1335351947,-0.2796272349,-0.9449860177,-0.6533911824,0.708196938,0.3120742142
-0.02427731297,-0.1726519841,-1.344023914,-0.6447579861,0.8715676665,0.3253336549
0.2539132767,-0.1665486257,-1.629075366,-0.6037996411,1.109605551,0.349704504
0.683424747,-0.2233705101,-1.447943723,-0.5707014799,1.310273886,0.3894022703
1.117339896,-0.3794062174,-0.9097767571,-0.568784833,1.350694895,0.4387391806
1.301599754,-0.3928041898,-0.1332727444,-0.644672811,1.080992699,0.4735565186
0.9472440257,-0.2715904242,0.566306434,-0.8295859694,0.4206978381,0.4737567902
0.2878510925,-0.1605292193,0.1970283005,-0.9738256931,-0.4395292997,0.4083168209
-0.471060711,0.06717661656,-1.789676262,-0.9000462294,-1.118007183,0.3007834256
-1.039245579,0.7678203555,-4.216459173,-0.6102059484,-1.451995373,0.20699431
-1.565911346,1.459840205,-5.921676698,-0.1863436848,-1.367585063,0.1446110904
-1.693374674,1.794748305,-6.44888154,0.2321599126,-0.8846864104,0.1624315679
-1.389555831,1.970046858,-5.591015588,0.4726185799,-0.2199126929,0.2352498472
-0.8683354703,1.937905753,-3.522220771,0.4367224574,0.3626085818,0.319273144
-0.2725796544,1.524253494,-1.155335572,0.1839994043,0.8034245968,0.3666116297
0.1364888204,0.9812576467,0.7119067451,-0.169441238,1.07980001,0.3680923283
0.3096205874,0.6386095268,1.865867522,-0.5226562619,1.185501337,0.3406500518
0.5539640351,0.6873242386,2.28724526,-0.7817137837,1.09940815,0.3198428154
0.8526385003,0.9342045114,1.99535724,-0.8683586717,0.8904594779,0.2973588109
0.882642082,0.9942938001,1.292002635,-0.79570508,0.6382238865,0.3058942258
1.133432076,1.018935197,0.7333826639,-0.6311424971,0.3925584853,0.3560149074
1.266450553,1.150504352,0.3677425945,-0.4270805717,0.2015513629,0.4276832938
1.114192245,1.278603348,0.2106090821,-0.218445614,0.06495517492,0.5083877444
0.8903922577,1.24591133,0.2645546073,-0.04124931619,-0.01704593189,0.5834392309
0.5603643306,1.114598123,0.5362807136,0.07022421807,-0.04326342046,0.6328611374
0.2383357318,0.9027974927,0.9356441888,0.1168149263,-0.01984378137,0.6552804112
0.008928717995,0.7244732351,1.357149353,0.1031419933,0.03402930498,0.6541786194
-0.1582523604,0.5677059621,1.670048012,0.05279859528,0.1104972959,0.6324050426
-0.2224997186,0.4117767109,1.861765347,0.0005391194718,0.1829264909,0.6036924124
-0.1367844789,0.3307521497,2.019081815,-0.05805018917,0.2303845584,0.5775752664
0.01778400543,0.2998383578,2.116644363,-0.1085477173,0.2520879805,0.5609952211
0.1846222618,0.3211460804,2.140076092,-0.1356850564,0.2354946285,0.5468866229
0.3607062662,0.3348849386,2.131070364,-0.1506400406,0.1941578388,0.5476229787
0.4756153786,0.3200735923,2.103952055,-0.1534324735,0.1270021945,0.549256742
0.5018710059,0.2639045824,2.065705619,-0.1543526053,0.04201167077,0.5420230627
0.5029482798,0.2170626421,2.00454534,-0.1622760296,-0.04845857248,0.5255577564
0.5095641908,0.1652175233,1.816813276,-0.1677861214,-0.1253312528,0.5018087626
0.4452572114,0.1030252345,1.60713709,-0.1775013953,-0.1924811453,0.4680346847
0.3694868809,0.04251746467,1.41827573,-0.1928739697,-0.2382193357,0.4255886972
0.3145972067,-0.01698500054,1.203589608,-0.208939001,-0.2667634487,0.3831938207
0.3404308093,-0.03409945441,0.9306243148,-0.2093661726,-0.2937327325,0.3458528519
0.3784208596,-0.03419445748,0.6517331392,-0.1958710551,-0.3068919778,0.3201795816
0.4152713846,-0.02227240289,0.4240162704,-0.1817022413,-0.2978684008,0.3054488301
0.3822444365,0.00358264426,0.2716045258,-0.1653931886,-0.2872720063,0.2958626747
0.3038024026,-0.03431837612,0.07064765368,-0.1310810149,-0.2861135304,0.2819727063
0.2574346192,-0.1234277701,-0.1562842022,-0.07577493787,-0.2781586349,0.2641198635
0.1586757735,-0.1566864994,-0.278179228,-0.01796144433,-0.2644529343,0.2497691363
0.06949892203,-0.1995854742,-0.2708592604,0.02642478421,-0.2370788753,0.2330870032
0.01733385051,-0.2913773852,-0.1204144319,0.03706438094,-0.205972895,0.2125891745
-0.06284991247,-0.4133149167,0.08305588435,0.02096799202,-0.1840440631,0.1848038286
-0.1061461795,-0.5231108144,0.2129115138,-0.006383205298,-0.1648724973,0.1509968638
-0.2087964066,-0.5906881572,0.2080687499,-0.02209031768,-0.1701163501,0.1197822317
-0.2472663495,-0.6638339844,0.07654314145,-0.01852194779,-0.1832702309,0.09040489793
-0.2354598841,-0.6591431962,-0.03207330061,-0.01070370618,-0.1841123253,0.06699118763
-0.1819447862,-0.6471438386,-0.1373275728,0.001838450902,-0.1787961125,0.05905044079
-0.1162194644,-0.6255044729,-0.2525789228,0.0256011188,-0.1692016572,0.05802212283
-0.09300145124,-0.6484133471,-0.3240320476,0.05938012153,-0.1540964693,0.06933549792
-0.09574439327,-0.6838260213,-0.3312023777,0.0860606879,-0.1327961534,0.07767955959
-0.1227802842,-0.7533226783,-0.2513625327,0.09647390991,-0.1096724495,0.08298297226
-0.1271897712,-0.8714734761,-0.1346007781,0.08778744191,-0.09709716588,0.08882501721
-0.118578266,-0.9963897494,-0.07530746218,0.08244460821,-0.1034607887,0.096156165
-0.1886476448,-1.091448937,-0.06340133581,0.064105317,-0.1076045036,0.08642964065
-0.3062819079,-1.213888299,-0.05678279445,0.04464187101,-0.1239278167,0.06359302998
-0.3461352314,-1.347601919,-0.05642682062,0.01106852479,-0.1432285607,0.02423505671
-0.3001320435,-1.415972275,-0.08326923484,-0.03101155162,-0.1534058303,-0.01426439825
-0.2293810391,-1.421526256,-0.1174228489,-0.07563328743,-0.1683645546,-0.04534420744
-0.0612955957,-1.413706376,-0.2366635608,-0.09531271458,-0.2056996822,-0.05703362077
0.1233331689,-1.377166744,-0.3758592655,-0.08818927407,-0.2785018086,-0.05930278078
0.1631312551,-1.324655197,-0.5260802221,-0.05417590961,-0.4031689167,-0.05907082185
0.13480558,-1.282659637,-0.6563029313,-0.01209920738,-0.557525754,-0.05773725733
0.0141522248,-1.238923664,-0.7427361831,0.0282064043,-0.7223181725,-0.06266011298
-0.2068491085,-1.129896083,-0.8427683367,0.05429888144,-0.8852363825,-0.07181629539
-0.4834780018,-1.005504345,-0.9265729936,0.05484402925,-1.018137455,-0.08868848532
-0.742709149,-0.8533454064,-1.072650275,0.040524479,-1.102413774,-0.110611096
-0.9284497473,-0.6713489631,-1.294759825,0.02184639871,-1.134836912,-0.1284904927
-1.032864792,-0.5104234745,-1.512100845,0.02118850127,-1.112803102,-0.1470225751
-1.067648667,-0.3930154944,-1.718449932,0.04901267588,-0.9991250038,-0.1660157144
-1.045735014,-0.4272446579,-1.747119562,0.06999906152,-0.8254386783,-0.1990973949
-0.9004977644,-0.5041308406,-1.199452362,0.005663483404,-0.7541184425,-0.2389540076
-0.7059566776,-0.5192029568,-0.2036240455,-0.1746821254,-0.8714413047,-0.2872363925
-0.7803934944,-0.5770435166,0.4027729914,-0.4238019288,-1.153341174,-0.346106112
-1.071756175,-0.5667751475,0.3274561769,-0.7114081383,-1.551777363,-0.4426692724
-1.540576852,-0.3048465779,-0.4995417593,-0.9851595163,-1.879555941,-0.5709364414
-1.933931296,0.44145212,-2.005641903,-1.181259394,-2.004063845,-0.6739414334
-1.969666188,1.511654271,-3.774090668,-1.205785751,-1.871522784,-0.7240368128
-1.728918281,2.476771807,-5.167085827,-1.072187781,-1.53169179,-0.6926816106
-1.094509932,2.984918897,-5.775769513,-0.8543387055,-1.080479622,-0.5567035079
-0.2511426064,3.121765701,-5.775698201,-0.5711562037,-0.5948169827,-0.3334563076
0.4120309413,2.934915972,-5.482136695,-0.2259378731,-0.1407384276,-0.08196280897
0.5571576436,2.51154706,-4.963670455,0.1710064858,0.2472300977,0.1338969618
0.08052022839,1.972077195,-4.07870373,0.58158952,0.5579903722,0.2581454217
-0.6483329753,1.435728384,-2.786291929,0.9450185299,0.7905159593,0.2765271068
-1.358617672,1.049292634,-1.107518759,1.212860823,0.9336771369,0.1861058623
-1.639244147,0.7639184527,0.6888619696,1.35798502,1.006403446,0.05089417845
-1.496044321,0.508578212,2.52866566,1.363090515,1.00203979,-0.09496315569
-1.09520734,0.3280462882,4.184651829,1.234660149,0.9445071816,-0.2197226882
-0.5949067978,0.167430304,5.471822222,1.001874804,0.8501186371,-0.3188775182
-0.2269685346,-0.1795480638,6.135426416,0.7353528142,0.739176929,-0.4247662127
-0.1011197296,-0.4361133163,6.571191577,0.3811079562,0.6300938725,-0.5231614709
0.3012555677,-0.1579681367,6.915986426,0.008258412592,0.4995049238,-0.6007489562
0.5107710093,-0.07628522117,6.384346232,-0.3085834682,0.3837887049,-0.69471246
0.5142985258,-0.2869457777,5.388267156,-0.500772953,0.278506279,-0.7902015448
0.5956460719,-0.4329175159,4.1734407,-0.573445797,0.1944057643,-0.8830881119
0.6731980251,-0.3070400694,3.106020142,-0.5731878281,0.1313481778,-0.9649276137
0.7427162363,-0.05138995896,2.316011921,-0.5458254814,0.08707951754,-1.027900934
0.7679992923,0.1465870936,1.680928303,-0.5043934584,0.04947774485,-1.059751868
0.7540827759,0.3021770847,1.158407235,-0.4748754799,0.02116142027,-1.076451778
0.7240355743,0.4384732138,0.7343465405,-0.4663403928,-0.005531859584,-1.076761961
0.7627647526,0.5367611541,0.3776946642,-0.4864414036,-0.03521598503,-1.054942131
0.7525756593,0.6166033736,-0.06578384703,-0.5094966292,-0.05167858303,-1.026670575
0.6599540012,0.6921482978,-0.5885340479,-0.5307886004,-0.01463880483,-0.9850298166
0.680066961,0.7583929673,-1.114091707,-0.5257546902,0.1017482579,-0.9241848588
0.753044592,0.8190045993,-1.618804147,-0.4825883508,0.2775525749,-0.8446863294
0.8630731659,0.869684766,-1.97413968,-0.3970569074,0.4776864648,-0.7411857247
0.9057947017,0.9061328477,-2.102570245,-0.28255108,0.6542404294,-0.6149989963
0.9689895552,0.8926941049,-1.943086955,-0.1654819548,0.7547851205,-0.4519962072
0.9454379261,0.7634429441,-1.564241367,-0.06312415749,0.7770259976,-0.2765458226
0.7571850528,0.5243774368,-1.163771976,0.02872049063,0.7515214086,-0.1281976253
0.5168751349,0.2294716948,-0.8387783903,0.1092691272,0.6857815385,0.003867733758
0.224665975,-0.03751796218,-0.5370522825,0.1831874102,0.5978166461,0.118902415
-0.103333241,-0.2238236059,-0.2362058801,0.2419210374,0.5105656385,0.2147303969
-0.4009437301,-0.4204332608,0.0439747508,0.2823115289,0.4368166029,0.2934440374
-0.5845850181,-0.631843759,0.3481733862,0.2989858687,0.3731596172,0.339530021
-0.7341637312,-0.8346666441,0.6347147844,0.2956528366,0.3084693849,0.3669537604
-0.7718971034,-1.006628673,0.8370774316,0.2800728083,0.2442073226,0.3846611083
-0.6845283974,-1.085547092,0.9860042567,0.266020596,0.1856192201,0.4040136337
-0.5536221264,-1.137062395,1.065538397,0.2456367612,0.1223092154,0.4313067794
-0.4721385328,-1.190027385,1.093083406,0.2199166566,0.05427284166,0.4575332701
-0.470166356,-1.261795421,1.005827148,0.2001003474,-0.00905126892,0.4764619768
-0.5033496637,-1.354958711,0.854057208,0.1814330816,-0.0532336086,0.4851155281
-0.5950186972,-1.430261643,0.6991448787,0.156791389,-0.06577124447,0.4748048186
-0.6722778415,-1.482659355,0.5357189881,0.1359258443,-0.05429534242,0.4535562694
-0.6743933723,-1.55736549,0.4021060519,0.1134109572,-0.02793084644,0.419316262
-0.5553756555,-1.61017602,0.308341142,0.09618154913,0.004368347581,0.3863141835
-0.4443343974,-1.604142,0.1550549526,0.08759312332,0.04111837223,0.3513074517
-0.4473986804,-1.563437357,0.04922551094,0.07932832837,0.07252510637,0.3095842302
-0.4584088443,-1.467771874,-0.03787117323,0.06373471767,0.07574886084,0.2558059692
-0.4887868488,-1.303123164,-0.1689361785,0.05018147454,0.06094387174,0.2072344869
-0.4754410084,-1.053315606,-0.3471031266,0.02838110738,0.03511600196,0.1629184186
-0.4659571773,-0.7416366244,-0.5588736537,0.0005161258159,0.006970401853,0.1320459098
-0.502366644,-0.4371776941,-0.8459902214,-0.02593705244,-0.00192428939,0.1145750433
-0.5077064341,-0.1735719668,-1.251723816,-0.03498164564,0.0155752385,0.101195462
-0.4855833035,0.09683169532,-1.750101792,-0.007024313323,0.05627179891,0.09730751067
-0.3980810707,0.3166224655,-2.266118886,0.06760293245,0.1487565041,0.116091691
-0.1990603908,0.4763569177,-2.627198515,0.1472354382,0.290235877,0.1681261361
-0.06407668692,0.4937121033,-2.616470785,0.2043959498,0.4383133054,0.2239302099
-0.07837516092,0.3915754152,-2.081822641,0.157900095,0.4566582441,0.2380561531
-0.2383268544,0.2083312003,-1.408326583,0.02835773118,0.3285896778,0.207099542
-0.3337088075,0.1703415518,-1.189421966,-0.1089647114,0.08288563043,0.1764838398
-0.4286505061,0.3921533612,-1.710688066,-0.1564109474,-0.1857756078,0.1642285883
-0.6201816705,0.7727849922,-2.778046664,-0.07019189745,-0.3876549304,0.1817500442
-0.755140176,1.161692248,-3.727431209,0.1183437258,-0.4524734616,0.211173892
-0.8258670324,1.395206112,-4.140308245,0.3462669253,-0.3631598353,0.2388888747
-0.7830357526,1.458519185,-3.901630422,0.5522940755,-0.1706216037,0.2583153248
-0.6114152669,1.268362232,-2.873284569,0.6296095848,0.007019225042,0.2593970895
-0.3352604209,0.899372852,-1.270653558,0.5357304811,0.1261862814,0.2437130213
-0.04749907074,0.5509393536,0.3060398793,0.2913623154,0.1930614412,0.2210575044
0.2121127281,0.4244179831,1.424997732,-0.02392651327,0.2200586647,0.191749081
0.3928475174,0.4716074947,1.891951811,-0.3209254444,0.2226331383,0.1525782496
0.6225177853,0.6418550115,1.671677659,-0.4993396997,0.2162369639,0.1169248894
0.8892978135,0.8986866233,1.02429687,-0.5377784371,0.2025461942,0.09952566028
1.245218818,1.214438991,0.4553934055,-0.4591315389,0.1757892221,0.1246083602
1.684532757,1.548406377,0.2269026297,-0.3293679357,0.1480691731,0.200958252
2.016991857,1.78918731,0.3130079648,-0.1956346482,0.1209372431,0.3115288913
2.164019716,1.879734865,0.6102841075,-0.07714716345,0.09363425523,0.4347093999
2.115319691,1.819476357,0.9981038599,0.01633879915,0.06321386248,0.5549991727
1.951001527,1.648800642,1.354925832,0.07476242632,0.02460548282,0.6504010558
1.647181808,1.443393512,1.713803568,0.09191448241,-0.03468490019,0.7109969258
1.282144235,1.223032851,1.989735309,0.07022702694,-0.09711311758,0.7415553331
0.9354913363,1.038028824,2.037892314,0.0585032627,-0.136044547,0.7480872869
0.6402575132,0.864397181,1.872831515,0.06908480078,-0.160477981,0.7292622328
0.4271969463,0.7454162891,1.731318766,0.1010556668,-0.1560593247,0.7012946606
0.3199693648,0.6656301471,1.759647619,0.125962615,-0.1630277485,0.6676142216
0.2594191441,0.6258902574,1.957748517,0.1207988039,-0.1939611733,0.6383743286
0.19196024,0.585655643,2.140343219,0.078809008,-0.2341083288,0.6077229381
0.06217197668,0.5217117978,2.259784422,0.0209936481,-0.2723097801,0.5719351172
-0.07989049739,0.4142601252,2.201625663,-0.04417043924,-0.3129730523,0.5224469304
-0.2348781204,0.3132860146,2.007718709,-0.09937957674,-0.34066239,0.464705348
-0.3263089796,0.2153049483,1.753867282,-0.147624597,-0.3442467451,0.3975159228
-0.3377410952,0.1884704251,1.535958106,-0.1849586964,-0.3324351013,0.3401061296
-0.2541067169,0.1623423332,1.372809864,-0.217966184,-0.3044428825,0.2919143736
-0.1367642398,0.1064875037,1.246338616,-0.2530896962,-0.2698246539,0.2531611621
0.007081957618,0.07280010073,1.128565639,-0.2732253373,-0.2208624333,0.2176098377
0.1237529287,0.01392696467,0.9621808981,-0.2811234295,-0.1690932661,0.190120995
0.2550861016,-0.05526561309,0.8276894255,-0.2796946466,-0.1141764745,0.165926978
0.3779376062,-0.1127006061,0.77760759,-0.2686219215,-0.06799339503,0.1467295289
0.534167667,-0.1541033693,0.7598293568,-0.2517752945,-0.04677891731,0.1407651156
0.6795888221,-0.2272974926,0.8521271167,-0.2571088374,-0.05064315349,0.1447728723
0.8066272022,-0.2888554472,0.9854752644,-0.2737280428,-0.07583346218,0.1574609727
0.8438120736,-0.3663784301,0.991203579,-0.2884041965,-0.09971704334,0.1641937643
0.8073335969,-0.4711815974,0.8483470136,-0.2865144312,-0.1190457344,0.1676454842
0.7728145836,-0.5621283446,0.6344166782,-0.2683331072,-0.1357557029,0.1681353897
0.6877246361,-0.6260423792,0.4020972841,-0.2381182313,-0.1390194148,0.1593157947
0.663033847,-0.6893248379,0.1914244891,-0.2004184574,-0.1182695851,0.1570544839
0.7034928448,-0.7217687984,0.05920213055,-0.1726723164,-0.08817613125,0.1653622091
0.7899854986,-0.7294669517,0.05333996052,-0.1573200971,-0.06190276518,0.1842999011
0.8599772457,-0.7695683682,0.07536240724,-0.1574383527,-0.04456878453,0.2119272649
0.8380334172,-0.8173700569,0.07479191387,-0.1587420106,-0.041814439,0.236211434
0.7386622117,-0.8954255757,-0.0446422748,-0.1526963711,-0.05870021135,0.2491962016
0.6544079113,-0.9146456783,-0.2533247727,-0.1321354359,-0.06562842429,0.259044826
0.6220978794,-0.9137676534,-0.5065864171,-0.08963856101,-0.06175858527,0.2658444345
0.5850308987,-0.9581754618,-0.7407517313,-0.02197474428,-0.05163371563,0.2736800015
0.5864458435,-1.044333696,-0.845659382,0.0528845787,-0.04812393337,0.2758065462
0.6485640076,-1.090889769,-0.7697381718,0.1100694016,-0.06406637281,0.2836413383
0.7255412296,-1.103017502,-0.5679021788,0.1417660862,-0.1093057543,0.295548588
0.7214465807,-1.124121592,-0.3736106098,0.1340576857,-0.162787199,0.3056733608
0.6760938196,-1.176122266,-0.2099690306,0.08557296544,-0.21328713,0.3059354126
0.5962391424,-1.225654213,-0.1805652415,0.002681928687,-0.2545555234,0.2989932597
0.521595003,-1.206184593,-0.3225011848,-0.07901772857,-0.2873328924,0.2933185995
0.4768106528,-1.118401314,-0.6441121428,-0.1501434743,-0.2967142165,0.2968420684
0.4230332873,-1.006557069,-1.041494673,-0.194024384,-0.3023907244,0.3025516272
0.3407811205,-0.9423147526,-1.425933551,-0.2107400894,-0.3202284575,0.3151350617
0.2480070848,-0.9099208418,-1.757871842,-0.205862239,-0.3674484491,0.3250572085
0.110204515,-0.8933912203,-2.025141553,-0.2008869648,-0.4575604498,0.3254007101
-0.1111998096,-0.8891711915,-2.238877243,-0.1969662607,-0.5838518143,0.3214206398
-0.3628567953,-0.8915173162,-2.572987032,-0.1886899024,-0.7184104919,0.3072170913
-0.6307097865,-0.891050064,-3.055421005,-0.1605077982,-0.8144353032,0.2900487781
-0.8945813069,-0.8853468839,-3.623343642,-0.09490096569,-0.849239707,0.2645403743
-1.260889119,-0.9019653527,-4.242890668,0.0286017973,-0.7798464894,0.224127695
-1.981165049,-0.9156677879,-4.773955108,0.1998662204,-0.5951887965,0.1206119508
-3.017825726,-1.035295526,-4.921241765,0.4282876551,-0.3427693248,-0.07872618735
-3.803383398,-1.199158712,-4.687154192,0.6962980032,-0.1154494807,-0.3421508372
-3.635622693,-1.270089786,-3.89028193,0.9776031375,0.03914595395,-0.5684670806
-2.74323517,-1.159989024,-2.747588397,1.259000421,0.06513938308,-0.7542741299
-2.62276667,-1.196200812,-1.359694362,1.501691937,-0.01168083213,-0.8729459047
-1.221888431,-0.6182347011,0.4727215569,1.59497869,-0.2232138366,-0.8392418027
-0.2386103109,-0.03784070503,2.051318197,1.465388775,-0.5345264077,-0.8129824996
-0.4753235561,0.04775295417,3.615363165,1.09604013,-0.9573733807,-0.8244789839
-0.6139286014,-0.01308211135,4.423567553,0.5875273943,-1.409307241,-0.8703817725
-0.5834016535,0.06977795817,3.951743237,0.06032247469,-1.697516918,-0.9082600474
-0.369760218,0.6267271466,2.348716505,-0.3886041939,-1.653430462,-0.9073923826
-0.5078820099,1.343216689,0.1412649122,-0.6611192822,-1.275573015,-0.862054348
-0.4565530969,2.102373115,-2.181875837,-0.6778157353,-0.6153149009,-0.7677251697
0.02848535912,2.78266351,-3.978952147,-0.4848259389,0.06854077429,-0.6072229147
0.2492811964,2.985878098,-4.858551208,-0.1395936906,0.5727978349,-0.3918336332
0.3264889393,2.847345825,-4.550059259,0.241054967,0.835077405,-0.1891755313
0.03159136231,2.680637844,-3.204405113,0.5394296646,0.8666824698,-0.04429050535
-0.5458557667,2.503532096,-1.558416606,0.7139389515,0.7362183928,0.02250654437
-1.377903826,2.228999115,-0.1941185505,0.7715452909,0.5362847447,0.006068183575
-2.204681105,1.85875389,0.8068120572,0.7358259559,0.3322890699,-0.1113820672
-2.742159358,1.49283705,1.478952609,0.640560925,0.1661579013,-0.2957468629
-2.721767727,1.251379533,1.997595375,0.4974208176,0.04624151438,-0.4853198826
-2.157901964,1.216085809,2.352056463,0.3046553433,-0.009502440691,-0.6270663142
-1.477047652,1.255336454,2.576906252,0.09380757809,0.01413080096,-0.7105448246
-0.8355896773,1.220571503,2.550770524,-0.09913098812,0.09779933095,-0.7353633642
-0.2366251285,1.222290947,2.352022561,-0.253095001,0.2145155817,-0.7315846086
0.1540177185,1.234001259,2.088569193,-0.34418419,0.3395280838,-0.7111248374
0.3897214944,1.180860912,1.787958353,-0.3664447367,0.4338093996,-0.6821641326
0.3377376246,1.155365748,1.797666677,-0.3348131776,0.4923744798,-0.6582752466
0.422159902,1.113297634,1.552983475,-0.2707186341,0.5168454647,-0.6370227337
0.4633525478,1.051489559,1.445813141,-0.2052551061,0.5093275309,-0.623266995
0.5063642257,0.9739433051,1.483641059,-0.147617653,0.4654767215,-0.6059503555
0.5565772864,0.9383163306,1.683022645,-0.1118889749,0.4117942452,-0.5942568779
0.5871350679,0.8826919855,1.875413349,-0.07357461005,0.3555397391,-0.5968111157
0.5463506375,0.7806154666,2.015568838,-0.06929419935,0.3049434423,-0.567156136
0.5795726698,0.6938764368,2.162508289,-0.108666636,0.2672240436,-0.5321443081
0.8459372491,0.7300561498,2.366618072,-0.1675835997,0.2550511956,-0.4924995303
0.8816580394,0.7229244713,2.504495096,-0.2281803787,0.2382317334,-0.4334743023
0.9430791611,0.5850859533,2.466546765,-0.2855656147,0.2214038372,-0.3678468764
1.018641256,0.4230333969,2.338379235,-0.3336383402,0.1921484917,-0.306774199
0.9358237101,0.2422729251,2.175501042,-0.3664073348,0.1771117896,-0.2511265874
0.8538840434,0.07167575461,1.973592568,-0.3773531914,0.196257785,-0.2194070071
0.6990985553,-0.1143660916,1.658559235,-0.3810880482,0.2000828981,-0.1869702786
0.4534393488,-0.2630785434,1.380985571,-0.3683823645,0.1879399568,-0.1533092558
0.3580861468,-0.3392013405,1.085436106,-0.339009881,0.1644223928,-0.1177116185
0.2601279499,-0.4153370702,0.756284816,-0.3129495084,0.1352205575,-0.0863648802
0.1346320501,-0.5020797533,0.5041840321,-0.2913331091,0.1111719385,-0.05565726385
0.008894012008,-0.5995362112,0.290902516,-0.2689892054,0.09550509602,-0.03193009645
-0.1216527415,-0.6399769427,0.07228373044,-0.2542436123,0.09457673877,-0.005816017743
-0.2724662572,-0.678714012,-0.1634264751,-0.2387621254,0.09286165982,0.01124951802
-0.3309984526,-0.7586664505,-0.3553875554,-0.2175702602,0.1094755083,0.02951964177
-0.3390459308,-0.8523878135,-0.5213169532,-0.1858133972,0.1523944885,0.0528816916
-0.4010836501,-0.8743766502,-0.7992997819,-0.1503437608,0.1866815984,0.07021255791
-0.4919817724,-0.8806366604,-0.969254782,-0.1177008525,0.221749559,0.07736607641
-0.5713351124,-0.9413368475,-1.022363856,-0.08981814235,0.2461690903,0.08012352884
-0.6805727186,-1.026726143,-1.059643493,-0.07254967839,0.2706677616,0.07619083673
-0.7770559475,-1.117879044,-1.031364909,-0.06804484874,0.2914887667,0.07789334655
-0.7493592545,-1.172460018,-0.950549497,-0.06593642384,0.3166111708,0.08228942007
-0.729039374,-1.218283173,-0.9144681298,-0.04812153801,0.3524659574,0.08682461083
-0.7350260471,-1.286124683,-0.9916916547,-0.008902762085,0.4012500048,0.0868640244
-0.765290837,-1.350232413,-1.072941951,0.04334422946,0.4497791529,0.07687534392
-0.8217037753,-1.405614255,-1.101072651,0.1026091501,0.4758488536,0.06437793374
-0.8216209193,-1.438581728,-1.040892616,0.1471731663,0.4713313282,0.04680027068
-0.7878983902,-1.476549347,-0.8496399761,0.1734250039,0.4483509064,0.03634443507
-0.7523219037,-1.498543153,-0.6264350318,0.1788715422,0.4124364853,0.01607721485
-0.7622996924,-1.506167218,-0.4636947853,0.1882096529,0.3781621158,0.001983501483
-0.7918250621,-1.486750277,-0.4746908111,0.1979734749,0.338151902,-0.007787531707
-0.8040501913,-1.429062789,-0.5554086079,0.2123084664,0.2867779434,-0.02008814178
-0.805551828,-1.40279306,-0.648845601,0.2366971821,0.2266627401,-0.03681526333
-0.8329846824,-1.354621588,-0.7641565723,0.2611575127,0.1683821231,-0.04826365784
-0.8542357794,-1.173034456,-0.9732517427,0.2756799757,0.1146645695,-0.0676285699
-0.8084444076,-1.071917796,-1.002411786,0.2930834889,0.05645878613,-0.07980294526
-0.7858679803,-0.9449632944,-1.081484738,0.3081012964,0.0007675606757,-0.09030298889
-0.7506924759,-0.8561317492,-1.222313597,0.3301229477,-0.0424279049,-0.1067000777
-0.6517503826,-0.8157548768,-1.375723121,0.3600081205,-0.03763048723,-0.1166594997
-0.4742257874,-0.8122760948,-1.459096985,0.3797174394,0.02389471792,-0.1299340278
-0.3298005846,-0.8727901116,-1.373331842,0.3562102616,0.1251230687,-0.1709717363
-0.1774428351,-0.9418061455,-0.9113859459,0.2515725791,0.2265666723,-0.2301722318
0.1620673887,-0.864861949,-0.1322030694,0.01615553908,0.233061865,-0.2751732469
0.3037290451,-0.6410008789,0.4807213235,-0.3385561109,0.05523723736,-0.2734697759
0.1834645431,-0.2436629912,0.05981704758,-0.6579287648,-0.2077800035,-0.2395160794
-0.2873796756,0.3040077159,-1.819208062,-0.7492088079,-0.4388169944,-0.2111620605
-0.669699077,0.8482233873,-4.31032462,-0.5415937901,-0.5538988709,-0.1895614266
-0.9513751342,1.217880072,-6.389952382,-0.06793347746,-0.4785840511,-0.1834973544
-0.897401625,1.639755458,-7.365597741,0.502790153,-0.2195256054,-0.1717208624
-0.7101593169,2.006852156,-6.476463375,0.9489437342,0.1108965129,-0.1895695776
-0.4866716467,1.945463475,-4.039072561,1.139410019,0.332072556,-0.2296251208
-0.08169307156,1.602905298,-1.183420095,1.079421878,0.4057143033,-0.265894413
0.4842355787,1.343372026,1.357445706,0.7985830307,0.4212048352,-0.3014241755
0.9611119537,1.303213911,3.101003191,0.4002990425,0.4155426919,-0.3010601401
1.48543218,1.344784377,3.939854647,-0.01612454653,0.4070765078,-0.2650776207
1.870476331,1.4353426,3.975584132,-0.3456234336,0.3787176013,-0.201704368
2.159942969,1.534076092,3.390727311,-0.5417940617,0.3592184782,-0.1155439094
2.196341877,1.513884806,2.568435361,-0.5933347344,0.3300067782,-0.04236264154
2.105116715,1.534930371,1.694606115,-0.5140359402,0.2682765722,0.05967371166
2.138018429,1.657370902,1.111180204,-0.3789752126,0.178598851,0.1522543281
1.610051517,1.644657843,0.8023276053,-0.2183871269,0.08481644839,0.2124628127
1.187294014,1.417886731,0.6369780531,-0.08204840869,-0.0005889283493,0.2508160174
0.8464914489,1.238903351,0.7941945677,-0.0003271811875,-0.05397838354,0.2671377361
0.6120915587,1.12458614,0.9923194312,0.01909781061,-0.05930255353,0.2794376612
0.5324011688,1.034721014,1.18274205,0.004750562832,-0.00312343426,0.2961572707
0.4388109579,0.9851556771,1.342569624,-0.03238316998,0.1015931964,0.3036836088
0.4860962214,0.9579469138,1.491172624,-0.07695943117,0.2165416181,0.3213190734
0.6057762746,0.9070989893,1.662590682,-0.1090750545,0.3156986833,0.3428703249
0.7367800512,0.8577008252,1.82166773,-0.130165413,0.3915428519,0.3722646832
0.8573300922,0.8507961604,1.989524296,-0.133475706,0.4269914329,0.4113672972
0.9147400786,0.7247380966,2.17528886,-0.1352698654,0.4245599806,0.4393635094
0.9110260996,0.5388656155,2.357533433,-0.1487330645,0.4010760784,0.460074693
0.8698557387,0.3894185659,2.564932321,-0.1793764532,0.3428140879,0.4720250666
0.8224310666,0.1934937697,2.699327347,-0.2249191254,0.2575135827,0.4729346037
0.7025510339,0.0007465075184,2.705415727,-0.2735079825,0.1520486772,0.4579873383
0.5803165104,-0.1514628464,2.554046185,-0.3194577098,0.05642870069,0.4272690117
0.4776325637,-0.2805464686,2.230087787,-0.3461380601,-0.006105514709,0.3925525546
0.399535763,-0.3912345293,1.812664339,-0.3558545113,-0.03426741064,0.3545957208
0.4647578115,-0.4879689565,1.424371124,-0.3575064838,-0.02377322316,0.3209528029
0.6360319314,-0.5354085339,1.15914081,-0.3547418416,0.01444606669,0.3091749847
0.8474209848,-0.5681519158,0.994583869,-0.3526834846,0.06524825841,0.3145329952
1.075266887,-0.5993004662,0.8787479971,-0.3455548584,0.1122781336,0.3366874158
1.284360011,-0.6739872758,0.7758417494,-0.3251260221,0.1516244709,0.3686347008
1.499261092,-0.8323778756,0.6842395705,-0.2925719023,0.1653878987,0.4023446441
1.651569814,-1.052271211,0.609430121,-0.2606022358,0.1606525332,0.4357151389
1.748697479,-1.230601241,0.4639028751,-0.2258541584,0.1683607996,0.4700248539
1.868663874,-1.380703686,0.2340893264,-0.180730626,0.2032663226,0.5197157264
2.032851397,-1.500739786,-0.1059369937,-0.109986566,0.256957829,0.5899763107
2.158336556,-1.621873764,-0.4667062421,-0.01654103398,0.3191080093,0.6758909822
2.138714156,-1.769923514,-0.8599293149,0.1033203304,0.400013268,0.7610406876
2.125607422,-1.921221891,-1.259239014,0.192995891,0.555172205,0.8854500055
2.019956406,-1.928909523,-1.274170626,0.216877073,0.7351756096,1.007766008
1.444533038,-2.033793646,-1.267839085,0.2335516512,0.8351421356,1.096420765
1.02058333,-2.282987603,-1.492484291,0.2791531682,0.8113491535,1.168783784
0.5941561256,-2.399404489,-1.813340631,0.3580940664,0.6765191555,1.188372135
0.1577271675,-2.442406596,-2.238393843,0.4892854989,0.4747917056,1.180448413
-0.09059628979,-2.470318101,-2.592004452,0.6388062239,0.2326573431,1.146146894
-0.1889282153,-2.384908931,-2.707160525,0.7769693136,-0.01458471268,1.101114869
-0.3215402308,-2.272196744,-2.734189402,0.8730204701,-0.2548521757,1.033914208
-0.3909693025,-2.146395943,-2.721635041,0.9282746315,-0.4694570303,0.9573109746
-0.4863211893,-1.9579531,-2.786372009,0.9488880634,-0.6565076113,0.873241365
-0.5541853497,-1.678423334,-3.024405105,0.9525991082,-0.7895995378,0.7880522609
-0.6026780164,-1.320702806,-3.390865258,0.9490208626,-0.8578448892,0.713039279
-0.7558567999,-0.9241187323,-3.76564725,0.9500432014,-0.8569305539,0.6455275416
-0.8746086323,-0.552956977,-4.044106464,0.9637675285,-0.7935143113,0.5826337934
-0.9674466366,-0.2012539554,-4.110369619,0.9787276387,-0.7011887431,0.5240440369
-1.053655797,0.1284950086,-3.902420111,0.9967628121,-0.5972873569,0.4660667777
-1.023600705,0.4214396979,-3.473276999,1.019607902,-0.515586257,0.4154312611
-0.9070764121,0.6316250016,-2.847889431,1.037661552,-0.474236697,0.3699308634
-0.848519886,0.737984897,-2.114496246,1.03862226,-0.4790823758,0.3147805333
-0.9269706146,0.8268266712,-1.420656487,1.021319747,-0.4924264252,0.2525243461
-0.9906506943,0.9195371036,-0.8430804714,0.9871817231,-0.4850598276,0.1833504885
-1.019817606,1.037062098,-0.2876607576,0.936029613,-0.4542880654,0.1157576069
-0.9941942121,1.166028231,0.2695230433,0.8587093949,-0.395573318,0.05632802099
-0.9993811133,1.320832424,0.7428378899,0.7893774509,-0.3216176033,-0.005901796278
-1.044802921,1.430397399,1.086012445,0.747605443,-0.2433103323,-0.07077673078
-1.17784836,1.482102598,1.444641174,0.7109749913,-0.1808035523,-0.1460717469
-1.443948516,1.455872178,2.016917915,0.6159482002,-0.1251352876,-0.2612428665
-1.681855793,1.376718854,2.828004581,0.4251867831,-0.06603547931,-0.4288561046
-1.884677144,1.27339175,3.739398125,0.08682657778,-0.03750014678,-0.6602106094
-2.164047335,1.206203882,4.498824162,-0.3944231272,-0.0287729688,-0.9528973103
-2.250885076,1.200766367,4.681024311,-0.9152829051,0.01807389781,-1.263456106
-1.949741444,1.371389475,3.919731312,-1.357379317,0.1699033678,-1.516540766
-1.321825965,1.84942419,2.618428933,-1.653402448,0.3687591851,-1.651302695
-0.364907225,2.496396252,1.104065988,-1.751888752,0.5506488681,-1.639754415
0.6703935621,3.106206605,-0.4042436485,-1.648139834,0.6768774986,-1.500509024
1.382468357,3.34015097,-1.775091272,-1.379729152,0.6516818404,-1.266261339
1.587154479,3.318915582,-2.717718159,-0.998442471,0.470364064,-1.012700438
1.269751494,3.153799546,-3.127112615,-0.6052566171,0.1909295022,-0.8038172722
0.6329037163,2.823383058,-3.11912337,-0.2563551664,-0.1365391463,-0.6739478111
-0.1567888272,2.361441985,-3.005907909,0.03410755843,-0.4419648349,-0.6270061135
-0.8322890283,1.96431942,-2.95770122,0.2567507029,-0.6368514895,-0.6258832216
-1.2407142,1.795441109,-2.740796837,0.3781029582,-0.6731532812,-0.6383518577
-1.399178523,1.756588378,-2.193174061,0.3777170181,-0.5428781509,-0.6404078007
-1.383887576,1.69550511,-1.458417771,0.2688578963,-0.2550994158,-0.634983182
-1.25382678,1.554712491,-0.6700111387,0.1096974164,0.1197863594,-0.6155119538
-1.05839627,1.422778594,0.06086100368,-0.03921802342,0.4617066681,-0.5889841914
-0.8484249012,1.279453096,0.643917497,-0.1210321635,0.7006930113,-0.5657966733
-0.6144597857,1.131981731,1.143155305,-0.1250047982,0.8105409741,-0.5359863043
-0.4466435877,1.00625268,1.617836764,-0.07278046012,0.7954578996,-0.5066787601
-0.3456047778,0.8880101849,2.130529096,-0.000943556428,0.674756825,-0.4886318445
-0.2150353741,0.7033294709,2.670225756,0.06413149834,0.5037941933,-0.4730940759
-0.09975399424,0.5068313318,3.132548668,0.1062880084,0.2998573482,-0.4653688073
-0.04685702824,0.3426623677,3.429910151,0.1234186441,0.08446642011,-0.468239516
-0.02858494704,0.1911421651,3.613742286,0.1031647772,-0.08982042223,-0.4726180136
-0.06598346126,0.07453209389,3.637127837,0.04659679905,-0.2064137757,-0.486405611
-0.1516612185,0.03000073212,3.4978012,-0.01857500896,-0.2645359337,-0.5103932023
-0.2093124664,0.0197483643,3.147106771,-0.09215322882,-0.2838866115,-0.5293160677
-0.2096124723,0.09026990738,2.75139948,-0.1482495219,-0.281331569,-0.5386997461
-0.2008043119,0.1413164963,2.432604164,-0.1980883777,-0.2707623839,-0.5416718721
-0.1651449695,0.1667090039,2.215306398,-0.2429410666,-0.2702294886,-0.5424540639
-0.1379004042,0.1470223067,1.951300072,-0.278480351,-0.2812173665,-0.542994678
-0.155228921,0.1178109714,1.49535254,-0.2852791548,-0.2607653439,-0.5467713475
-0.1958331724,0.1360131292,1.099635897,-0.3010118306,-0.2156952322,-0.5401995778
-0.2377553746,0.1847137394,0.9336322645,-0.3286530375,-0.1603054851,-0.539069891
-0.2786556864,0.1919140262,0.8857418015,-0.3757089674,-0.1027937159,-0.5419541001
-0.3487370845,0.157435418,0.8948141658,-0.441436857,-0.07452266663,-0.5526645184
-0.3852778128,0.05544993841,0.8790005106,-0.5175123215,-0.07489545643,-0.5685560703
-0.3738451492,-0.01104234915,0.7299860072,-0.5778457522,-0.08569484204,-0.5851768255
-0.2280659014,0.01024082351,0.4121814557,-0.6115658283,-0.08980872482,-0.5799971819
-0.1280574209,0.09234496009,-0.004852116206,-0.6087860465,-0.09464155883,-0.558057487
-0.07150565874,0.1111971062,-0.4247375704,-0.5723189712,-0.09205050021,-0.5194211602
0.03974924206,0.07076660388,-0.6755635121,-0.5141302347,-0.0799799934,-0.472837925
0.1340164755,0.01476012756,-0.7416244225,-0.4648624957,-0.06343594193,-0.4123509824
0.2195030941,-0.07027136771,-0.6679197193,-0.4294357896,-0.04962293059,-0.3509310484
0.2892084254,-0.1878423198,-0.5988590426,-0.3982104957,-0.03029698879,-0.2900204957
0.3152819011,-0.3754327837,-0.5312170005,-0.3726297915,-0.02096074447,-0.2396087199
0.2760493033,-0.5961557019,-0.477864765,-0.3389930129,-0.03865797073,-0.2042124271
0.2091936258,-0.8104781785,-0.4509545462,-0.3121049404,-0.05739757046,-0.1758050174
0.1517222645,-1.003496732,-0.4076408897,-0.292835474,-0.0656010434,-0.1500021219
0.13035967,-1.162072771,-0.4557610697,-0.2727722824,-0.08727811277,-0.1197139993
0.1159331948,-1.302111649,-0.5925730942,-0.2456022054,-0.1114228517,-0.09641430527
0.04840802054,-1.431285726,-0.7267559392,-0.2001803964,-0.1286817342,-0.07597054541
-0.02744684638,-1.585987773,-0.8509259242,-0.142519027,-0.1452101767,-0.070139274
-0.05241046112,-1.706373271,-1.013040732,-0.06765623391,-0.1648949385,-0.06512001157
-0.01869198712,-1.780919248,-1.098882448,0.01399628352,-0.1722164899,-0.0670619905
0.02411222207,-1.818514673,-1.162136484,0.1026840732,-0.1627907753,-0.06223395094
0.03005870938,-1.813591683,-1.092363275,0.1670686901,-0.151519224,-0.07614093274
0.04657287754,-1.867267305,-0.9160831638,0.215152055,-0.1454807669,-0.09913120419
0.09527045562,-1.943181355,-0.7849947777,0.2284971178,-0.1404394805,-0.1317349225
0.1763855081,-1.992315827,-0.6138888539,0.2042511702,-0.1221598014,-0.1690229028
0.2032060027,-1.968541714,-0.5462175857,0.1524930447,-0.08334118128,-0.2110584676
0.168169578,-1.91244661,-0.6551473315,0.09319537878,-0.0001887697726,-0.2615003586
0.1764308085,-1.836461979,-0.7861877868,0.01011714805,0.1386061609,-0.3085002303
0.273565341,-1.66295367,-0.9022036915,-0.06848551333,0.2961864769,-0.3442417085
0.4568627474,-1.513952319,-1.14152975,-0.1022737846,0.4649512172,-0.3623407483
0.7440306069,-1.434885212,-1.365432028,-0.09093111753,0.6231669784,-0.3572671413
1.027359765,-1.359404439,-1.236491176,-0.09649010748,0.7145783305,-0.3511526883
1.375981626,-1.308728291,-0.5912549973,-0.1470065415,0.7385920882,-0.3407389224
1.785418459,-1.22439581,0.1805412761,-0.2700510025,0.6057943106,-0.3277254403
2.04145629,-1.147155773,0.6927952174,-0.4792886376,0.2290252447,-0.2965094745
1.972564102,-1.086375871,0.4823527241,-0.7071484923,-0.2396489233,-0.2696098685
1.563714713,-0.7421257962,-1.208970132,-0.7758383751,-0.6083436012,-0.2609018385
1.143419217,-0.1932742817,-3.820878723,-0.5976520181,-0.8140102625,-0.2435088605
0.8551646578,0.2857570428,-6.235570798,-0.2063934952,-0.8110097051,-0.2062794715
0.5739676163,0.843208847,-7.461833425,0.2387148738,-0.6117057204,-0.1737628728
0.4788473828,1.334479841,-6.858291778,0.5214065313,-0.3391495645,-0.1294867545
0.8472631639,1.468857624,-4.822293315,0.5566865802,-0.1280495077,-0.06198997796
1.314741121,1.259420216,-2.584288179,0.3971277773,-0.02762756497,-0.01895356178
1.517447029,1.038740918,-0.9329401906,0.1115982085,-0.005152411293,-0.00658932887
1.668708288,1.041680113,-0.02619359492,-0.1961700022,0.01532356907,0.01534553058
1.943801387,1.307869482,-0.1719692626,-0.4005747736,0.09220013022,0.07401909679
2.186216643,1.709974365,-1.05341892,-0.4284921587,0.2326440662,0.1786251366
2.376033259,2.011118581,-1.862559128,-0.297329247,0.397447288,0.3410512805
2.599972362,2.193770273,-2.058143659,-0.06535431743,0.5192200541,0.5449418426
2.673074131,2.271682073,-1.627671344,0.2021909356,0.5862153769,0.7644609213
2.488822018,2.219926605,-0.6917156055,0.4538372755,0.5817945004,0.9636312723
1.999250741,1.979356684,0.4180015402,0.6702255607,0.5169531703,1.11559999
1.430798819,1.704605969,1.663110322,0.8004863858,0.4185178876,1.210176587
1.044098499,1.40043466,2.922629322,0.8377155662,0.3125504255,1.252335548
0.7809116,1.10885651,4.063127391,0.7900977135,0.2123511136,1.246718407
0.6444064495,0.891342325,4.996270995,0.6674886942,0.1262891144,1.208819747
0.6929417132,0.7342421302,5.636420079,0.5023614764,0.05332277343,1.16064775
0.9128037037,0.6640728347,5.990509411,0.3100730479,0.002191573847,1.122274041
1.283335491,0.6881965645,6.004797464,0.1204749048,-0.01680528745,1.114679813
1.744724483,0.8274820664,5.726171077,-0.04655301571,-0.003317877185,1.148881674
2.100354761,1.009263333,5.327101616,-0.1904457361,0.02192303166,1.218184829
2.359956715,1.086240189,4.912909405,-0.3014690876,0.03127264231,1.305653691
2.517854928,0.9966720735,4.53299122,-0.3854761124,-0.001209398732,1.394381642
2.620763806,0.7437759745,4.180632072,-0.450887233,-0.07759198546,1.475450516
2.643221429,0.4605376365,3.828752817,-0.503421545,-0.1728841513,1.543036699
2.564804603,0.2090994812,3.367128993,-0.5458189845,-0.295707047,1.594095349
2.315176346,-0.01718428597,2.844854009,-0.579446435,-0.4197874665,1.609947562
1.997049724,-0.2685634045,2.185517993,-0.5928356051,-0.5301144123,1.584213972
1.845542819,-0.5085962956,1.427692962,-0.5858149529,-0.6168919206,1.537055016
1.901888099,-0.6154230047,0.6590402473,-0.5498003364,-0.6856518388,1.489623904
2.142543944,-0.6260146875,-0.1326689333,-0.4854530394,-0.7234932184,1.462991834
2.47819161,-0.5629612883,-1.020870403,-0.3707868755,-0.7290937304,1.484391332
2.809687126,-0.4353759419,-1.936568951,-0.2119431794,-0.7155688405,1.545158267
2.970500496,-0.3150912008,-2.68236686,-0.02353327908,-0.7191594839,1.629296541
2.841977869,-0.2862311632,-3.241269155,0.1828529239,-0.7395662069,1.708390832
2.51087106,-0.3777048934,-3.746333477,0.400941968,-0.7406089902,1.749266267
2.079092047,-0.4822941988,-4.080785797,0.6221169829,-0.7115131617,1.754382968
1.617253265,-0.562907147,-4.220336891,0.8172637224,-0.6305496693,1.71784687
1.208612185,-0.5368498918,-4.1792111,0.9751343131,-0.4681850672,1.661297798
0.8975519932,-0.4481131853,-3.897051278,1.076875448,-0.2292968035,1.597386956
0.7626170878,-0.3009790888,-3.36162572,1.122775793,0.05407872051,1.542519927
0.7053821656,-0.1209771803,-2.650125802,1.116552353,0.3266133964,1.502959251
0.6444600794,0.03419014663,-1.930820763,1.099055648,0.5593853593,1.466688275
0.5969717675,0.09226575737,-1.28968033,1.086442351,0.7086035609,1.42709136
0.5209441379,0.09341331997,-0.6709627403,1.078062177,0.7472545505,1.374644399
0.4020614821,0.1225780397,-0.1759223841,1.071464419,0.6919375062,1.315011263
0.2607336607,0.0870119285,0.2843096936,1.042288423,0.5753150582,1.238225102
0.05707892785,0.02316533314,0.6478355472,0.9778757095,0.4193551242,1.143855095
-0.2297850533,-0.02312076335,0.7946212687,0.9004882574,0.2494153529,1.01781404
-0.5862378268,-0.0338528775,0.7361877844,0.8152854443,0.119096674,0.8635239005
-0.9239540433,0.01522942557,0.5176052392,0.7189621329,0.03911981359,0.698066175
-1.104996912,0.1389564891,0.3180032889,0.600831449,0.02434194647,0.5504450202
-1.120712441,0.3555766482,0.1476432151,0.4650576711,0.06551255286,0.4215562642
-1.091535008,0.5863334692,-0.0324281054,0.3353210688,0.1246133968,0.3265992403
-1.050434205,0.8247736842,-0.2386749006,0.228404209,0.1698916554,0.2536390126
-1.085642223,0.9737466866,-0.4481891732,0.1486995071,0.1979572922,0.1955720186
-1.132470464,1.046348689,-0.5485936672,0.09027587622,0.2112552673,0.1349283755
-1.148949013,1.108022032,-0.6102034434,0.04655490443,0.2124899477,0.08716656268
-1.140518234,1.212250176,-0.6233826585,0.03494219109,0.2132553458,0.0522397384
-1.182065247,1.293505733,-0.655468234,0.05193907768,0.2290758193,0.02822636068
-1.161027719,1.332097768,-0.6131342362,0.09066330642,0.2753125429,0.02326995134
-1.188716156,1.359294987,-0.3609989655,0.1471388638,0.3190475106,0.02075889893
-1.415991418,1.326318308,0.1254950962,0.1779508293,0.3486663997,0.007002339698
-1.731357052,1.15643272,1.02557522,0.1111767739,0.323071599,-0.06306155771
-1.888064448,0.8314955398,2.375272503,-0.146602571,0.1722061783,-0.189720422
-1.946425159,0.2959317423,3.77043916,-0.6528208852,-0.1332541853,-0.3876780868
-2.238743534,-0.1806036738,4.548753437,-1.334602952,-0.4757660031,-0.6548317671
-2.607730721,-0.2835818177,3.869883869,-1.9799757,-0.6798336506,-0.9451910257
-2.926667784,0.2789202556,1.540420347,-2.399461031,-0.7098631859,-1.174976587
-2.760181337,1.209732202,-1.625432626,-2.47863245,-0.6117368937,-1.293700218
-1.929931705,2.183031875,-5.300410593,-2.172776937,-0.3955044746,-1.226473212
-1.14483091,2.964594779,-8.219237016,-1.620755076,-0.06447714567,-1.001387477
-0.8148875194,3.401606432,-9.184355721,-1.021198153,0.3029927313,-0.6799827814
-0.8103679961,3.500118829,-8.558500535,-0.4920434356,0.5538808703,-0.3549532294
-1.243955374,3.132540777,-7.100410681,-0.05128229782,0.582261622,-0.0913034752
-1.882977208,2.40744868,-5.634058026,0.3373478353,0.4482068717,0.07485552877
-2.76248523,1.731910887,-4.333340754,0.6729695201,0.2474226356,0.1409623772
-3.501117485,1.311570528,-3.033500265,0.9406370521,0.06022900343,0.140623793
-3.903835531,1.016393988,-1.699333144,1.114905953,-0.05847208202,0.09645232558
-3.874750891,0.7057562597,-0.1543950274,1.155063152,-0.06006603688,0.04152562842
-3.582348784,0.4829094812,1.509753406,1.058966994,0.04030797258,-0.006129240151
-3.18404417,0.321887583,2.939850506,0.8912256956,0.1865637153,-0.04642899334
-2.88031929,0.1536431861,4.129770485,0.6733216047,0.321506083,-0.1015750691
-2.621643804,-0.07389701086,5.095404154,0.4424899817,0.3945848346,-0.1806400567
-2.392398556,-0.2942301991,5.654401726,0.2322885245,0.395003736,-0.2789493203
-2.138022083,-0.4693799914,5.868897294,0.06272310019,0.3300302029,-0.3885479271
-1.951015702,-0.5073934957,5.813322122,-0.06157328561,0.1967126131,-0.499723196
-1.777394142,-0.4662848018,5.626551596,-0.1441573501,0.01142717153,-0.6064266562
-1.54122348,-0.4018567533,5.294425089,-0.1864723116,-0.2177524865,-0.6994279623
-1.275011753,-0.3949436129,4.715791089,-0.1963602304,-0.4515640438,-0.779800117
-1.115942888,-0.3006944267,4.093527205,-0.2036844641,-0.6694782376,-0.8440600634
-1.096932337,-0.1270347268,3.533903025,-0.2227408886,-0.8566562533,-0.9009774923
-1.199663739,-0.03256619869,2.891244004,-0.2606456578,-0.9899978042,-0.9655407667
-1.319170628,0.01205503332,2.231545585,-0.3169701695,-1.049719453,-1.046296835
-1.382135764,0.116625561,1.461624458,-0.380227685,-1.029613853,-1.128640413
-1.443589912,0.2914411529,0.764857414,-0.4513472915,-0.9219501019,-1.203056693
-1.425091255,0.5115066301,0.1905699181,-0.5313574076,-0.7407861948,-1.265842795
-1.246741059,0.750526837,-0.3175567141,-0.5926549435,-0.5124182105,-1.299037099
-0.8604686825,0.9367553649,-0.8410200318,-0.6075212359,-0.2623276711,-1.296513438
-0.4383499893,1.063242687,-1.249473407,-0.5805128217,-0.0105629107,-1.252086282
-0.05725256739,1.175754529,-1.299170042,-0.5377331376,0.2092064619,-1.172787189
0.2125034079,1.177929389,-1.049291611,-0.4962016344,0.3638554513,-1.082982183
0.3912310952,1.026044225,-0.5794727896,-0.4624340832,0.4457833171,-1.005968094
0.4804213176,0.746112893,-0.05976327157,-0.4385200143,0.4377626777,-0.9600337148
0.5790609209,0.4052832937,0.4278250151,-0.4404766262,0.3647289574,-0.9258757234
0.7166985094,0.1535002705,0.8836299239,-0.4699714184,0.249165535,-0.9011716247
0.8861316046,-0.004390270848,1.158915184,-0.5144771338,0.1216570958,-0.8715221286
1.112988788,-0.1581954426,1.219243104,-0.5720739961,0.01004551258,-0.819435358
1.335401924,-0.2776549849,1.009170613,-0.611464262,-0.07152444869,-0.7500424385
1.469880976,-0.3364677508,0.5523486358,-0.6150688529,-0.1077968031,-0.6597582102
1.491019479,-0.4063469774,-0.01027414126,-0.5869951844,-0.08633172512,-0.5657408834
1.405191646,-0.4668537974,-0.5842939261,-0.5352034569,-0.02418860421,-0.4672259688
