Accelerometer.z,Accelerometer.y,Accelerometer.x,Gyro.z,Gyro.y,Gyro.x
0.1872480802,0.4869558339,0.06280266666,0.6379995942,0.8567442298,-0.57781744
0.1787900485,0.6080208387,0.1499871478,0.7664193511,0.9948608279,-0.6503483653
0.288019654,0.7347329094,0.1419096947,0.8946020007,1.105782866,-0.7200503349
0.4239660015,0.712697311,0.20777848,1.005851507,1.177114248,-0.7912920117
0.5770359178,0.6866279269,0.1963324637,1.062550783,1.24060905,-0.9590649605
0.7766729395,0.5825038279,0.1706679707,1.15077436,1.31791079,-1.084017754
0.7092986084,0.6148457163,0.1755747762,1.277843952,1.524574995,-1.226753592
0.3439508001,0.7093801492,0.02941226471,1.421827555,1.822972059,-1.375946522
0.1115390515,0.7163380056,-0.2213112395,1.552410722,2.128395081,-1.548195958
0.1597983478,0.659198945,-0.5971116875,1.663606763,2.437014341,-1.714960933
0.07560206121,0.4120627978,-0.9474497044,1.729056835,2.755360365,-1.877143264
-0.07967091809,0.02588642867,-1.317732412,1.724301219,3.020852566,-2.060361147
-0.02751169178,-0.3681844931,-1.574715853,1.660294294,3.209938049,-2.235497236
0.157467859,-0.6643231562,-1.605519865,1.574253678,3.374895096,-2.359173059
0.1737128914,-0.7393433258,-1.487435775,1.401826739,3.52340126,-2.315381289
0.01349018069,-1.359017193,-1.368118345,1.009170532,3.541088581,-2.123059273
0.1885468879,-2.534683605,-1.43943513,0.4196328521,3.411998272,-1.848996639
0.3574970949,-3.360171429,-1.484321735,-0.1083566472,3.046703339,-1.556923509
0.974314988,-3.023456426,-1.384180568,-0.4090431929,2.390621662,-1.218528032
1.764212151,-1.870794895,-1.533035205,-0.544254303,1.771371484,-0.8630322814
1.399986624,-1.130955456,-1.647243475,-0.5769938827,1.275649071,-0.5009047389
0.7652835305,-0.8470214641,-1.341818513,-0.6099489331,0.8583391905,-0.128177464
0.4999228675,-0.7229789049,-1.032368533,-0.8133602142,0.2948510051,0.1985178292
1.080902555,-0.4414817845,-1.26171008,-1.159094214,-0.4541231096,0.456668973
1.519689109,-0.2925077592,-0.9667577045,-1.542085171,-1.279371381,0.7074629664
1.367259244,-0.1265390522,-0.7015171608,-1.891137123,-2.048212528,1.006268859
0.6550339343,-0.01848170537,-0.6142100487,-2.192159891,-2.542705536,1.330759883
-0.7244657824,0.1217732991,-0.6853536692,-2.418011189,-2.855060816,1.57086134
-1.309029758,0.5655027164,-0.752265059,-2.541821241,-2.957342148,1.52198267
-1.041628529,1.198288432,-0.5394494068,-2.512188196,-2.935576439,1.22318244
-0.1858703621,2.40480591,-0.2487355452,-2.295163393,-2.772408009,0.9140933752
0.1522194369,3.794520878,-0.1614062214,-2.002056837,-2.303917885,0.6332819462
-0.5850830307,3.993078287,0.01456891584,-1.697639823,-1.695695996,0.4096764922
-0.8591828804,3.399837669,0.2336233163,-1.429736972,-1.139248133,0.2476308495
-0.5176110845,2.502399585,0.2791584483,-1.218298674,-0.7816854119,0.1098138019
0.4096890544,1.456072523,0.2849590974,-1.059758902,-0.6732161641,-0.03254547343
1.287284959,0.4698277351,0.4093409716,-0.9284353852,-0.7833794951,-0.1833333224
1.580832436,-0.3218627408,0.9072343792,-0.7559669018,-1.305585742,-0.2056466192
2.057532249,-0.5199111781,1.730498536,-0.4671362638,-1.883261442,-0.06653212756
1.603823436,-0.05410670711,1.879367639,-0.08955410123,-2.475498915,0.1800715178
1.425541921,0.3243313228,1.604922045,0.3321368396,-2.974137783,0.4852994084
1.145313944,0.4861269819,1.160289541,0.7484222054,-2.565679312,0.9380383492
-3.290546104,0.6118173084,0.3229652221,1.070937395,-2.486734629,1.352610111
-2.381154547,1.256919193,-0.326279169,1.267831087,-2.578590393,1.609261036
1.352522278,2.180719653,-1.663508528,1.295650244,-2.727412701,1.803932071
1.131931316,2.304697038,-1.028424033,1.334370971,-2.775120258,1.92685318
2.106932532,2.437934711,-0.2741355786,1.360769153,-3.020370483,1.905120254
3.184379978,2.166298037,-0.5671846782,1.408070564,-3.556165457,1.724273682
4.410898041,2.146782312,-1.217375264,1.549587846,-4.178772926,1.517071962
5.358147328,2.585152394,-1.27196274,1.715088964,-4.663961411,1.293956041
5.948267768,2.430259939,-0.8050995542,1.808100939,-4.956109524,1.048669577
5.413172465,1.402648245,0.1506800986,1.833482981,-5.108255386,0.83050102
4.413468184,0.6298913097,0.8256140806,1.757515788,-5.135531425,0.6592600346
3.812743347,1.175825987,0.1758905277,1.610061646,-5.064342499,0.5967825651
3.407632853,2.307117251,-0.3306380218,1.503971219,-4.934076786,0.6627899408
2.915494648,2.859864238,0.433584017,1.444373369,-4.682901859,0.8528723121
2.003268744,2.921508501,0.7103010635,1.511348486,-4.625412941,1.113534927
1.694264754,3.292997297,0.1588391473,1.766668677,-4.637387276,1.40195024
1.318636959,4.536958955,-0.2806979328,2.102694511,-4.548289776,1.799197912
0.138723411,5.523834733,-0.1866477762,2.408998728,-4.371819496,2.254289865
-0.8755091613,5.547689072,0.3108399731,2.604918003,-4.197696209,2.671132326
-1.235017596,5.105175606,0.9676683896,2.751788139,-4.080388069,3.030358791
-0.9888812735,5.245145218,1.390791511,2.922291994,-4.003796101,3.328984976
-0.5537228468,5.643514421,1.6849843,3.152416945,-3.919711351,3.539830208
-0.4828180035,5.687379866,1.894765699,3.421178818,-3.800804615,3.56870842
-0.5721890623,5.394881021,1.417906897,3.635661364,-3.499664307,3.331544399
-0.8521189334,4.825881403,0.6359568934,3.776835442,-2.828576088,2.997083902
-1.867637162,4.339292941,-0.2264958025,3.891395092,-1.947363973,2.662586927
-2.794904567,3.926199923,-0.8122124549,4.067397118,-1.164777756,2.376846075
-3.204339062,3.698373164,-1.316363169,4.267325401,-0.5361081958,2.252118349
-3.591895195,3.482678449,-1.720507449,4.374952793,-0.105960533,2.258584023
-3.62511036,2.545700674,-2.605560099,4.266560555,0.06086334214,2.388247728
-3.485135779,0.8852174854,-4.439849995,3.948698521,-0.100039348,2.608533144
-2.853108334,-0.7095234302,-6.207780874,3.491104603,-0.391887188,2.879318714
-2.983772065,-2.062022546,-7.555791227,2.963846445,-0.4984738529,3.166451454
-3.918206294,-3.187577313,-8.427482292,2.491069317,-0.4286923707,3.392884731
-4.181793517,-3.465414011,-8.4215605,2.152462721,-0.2056080103,3.507045746
-3.916304552,-3.171920894,-7.727103487,1.940805435,0.2548594773,3.46593976
-3.193597011,-2.896652585,-6.368392292,1.801857114,0.6824504733,3.280243397
-1.849937839,-2.861878793,-5.483157855,1.749450684,1.031298399,3.076658964
-0.7349988669,-2.909059062,-4.898772744,1.684492707,1.234653234,2.880614519
0.379944489,-3.573132627,-4.523844037,1.563530803,1.10487175,2.763259649
1.082713403,-4.40745813,-4.645596439,1.330390334,0.6040292382,2.652077436
2.851223251,-5.15441573,-4.781524082,1.13251102,0.2453951836,2.578638315
3.656635086,-5.562473968,-4.356356304,1.023257613,0.1123734713,2.276599407
4.800466099,-5.701860227,-3.631681847,0.8616049886,0.07081004977,1.633420348
7.828179012,-6.494824961,-3.688838735,0.5023849607,-0.1389456838,0.6925941706
11.18758647,-7.938495829,-4.71839981,-0.2286982983,-0.3299409449,-0.3082351089
13.46433313,-9.689989368,-5.922776184,-0.5382815599,-0.4150282443,-0.713163197
9.099421184,-7.290067576,-4.22548536,-0.4717992246,-0.6224853396,-0.3353482783
3.172903183,-3.286091171,-1.413217862,-0.5614118576,-1.047904134,0.1563273221
1.64606391,-2.719302214,-0.6975052948,-0.6398594975,-1.416101098,0.5846352577
0.5423091801,-1.721827884,-0.1734825897,-0.5718525648,-1.53479588,0.9799623489
-0.8651192847,-1.086498329,0.8038760038,-0.4204060435,-1.523842812,1.241261363
-1.185161094,-0.9922112947,1.631910882,-0.285626024,-1.487864733,1.366237164
-1.06569271,-1.394268393,1.896376057,-0.1663233489,-1.363043189,1.371445775
-0.7340633396,-1.721033227,2.010610924,-0.02417206019,-1.153026581,1.29950738
-0.3859048587,-1.567976754,2.309050849,0.01828032359,-1.00671649,1.176118612
0.4526433761,-1.875829528,2.209851055,0.203517735,-1.017496467,1.003863215
1.169851004,-1.376515148,2.452832713,0.333280772,-0.918163538,0.8976253867
0.473259317,-1.212509923,2.228839833,0.4331503212,-0.7623340487,0.7750464082
-0.01242927346,-0.6803482622,1.721092555,0.5832463503,-0.5705009699,0.5758293867
0.2959592148,-0.1372791305,2.058420138,0.6460103989,-0.4632880092,0.3177784681
0.8018103034,-0.4040188267,1.250651803,0.6666139364,-0.3047529459,0.1893472522
-0.2253751279,-0.1126656809,0.3589192366,0.7231141329,-0.2476277202,0.17788589
-0.9876020473,0.4657716282,0.03827741595,0.6798313856,-0.2677950263,0.2718209028
-1.172779459,0.6861280146,-1.001478305,0.5353875756,-0.3747518361,0.3972016573
-0.9038122958,0.2688633191,-2.036420488,0.44959867,-0.7954234481,0.5520570278
0.1869032123,0.6398489324,-1.688977754,0.4634058475,-1.075891614,0.7769083977
-0.7653840683,1.769379324,-1.307810445,0.6314734221,-1.058479071,0.9652090669
-1.843826224,3.268562236,-0.6356850907,0.8853926659,-0.8289735317,1.017987728
-1.69573132,4.603376716,0.08971651128,1.071670055,-0.5723034143,1.001237988
-1.204199118,4.487195976,0.1075707324,1.167519569,-0.3663791716,0.9697155356
-0.4354961342,4.107990907,-0.1470885038,1.195597529,-0.2670965493,0.8569005728
0.5251391419,3.769793556,-0.2860205891,1.170786023,-0.2323186249,0.6847915649
1.302926619,3.265492035,-0.3536562015,1.150497794,-0.2009042501,0.4547120035
1.836529199,2.540669402,-0.2042278566,1.207755208,-0.2360671014,0.1772199422
2.340202943,1.973319596,0.007122983748,1.268906474,-0.4940531254,-0.1114531383
2.866400654,1.08221276,-0.001179565173,1.346458435,-0.7053599954,-0.3605021536
2.577780112,0.6117475311,-0.1349462306,1.364948034,-1.247622967,-0.7247230411
3.918961496,-0.949151759,-1.073487894,1.449641585,-2.193226099,-1.256005764
5.535756642,-1.326776135,-0.4139093024,1.557660699,-2.562730074,-1.59788537
0.7726438301,0.07867445439,-1.210187691,1.617358804,-2.431304932,-1.561868072
-3.457850298,-1.796063479,-3.473114502,1.609266996,-2.306316614,-1.524376631
-3.47485287,-2.795618853,-3.160399383,1.705812097,-2.026067734,-1.484135389
-3.474405127,-3.144141783,-2.53778011,1.873144388,-1.637315631,-1.188613534
-3.843302736,-3.783501471,-1.508894743,2.148942232,-1.345257759,-0.5977996588
-3.48613765,-4.060952385,-0.08451192838,2.280093908,-1.087632418,-0.1729452461
-2.458703651,-3.893865049,1.364737616,2.303712845,-1.083160043,-0.07683888078
-0.3168997115,-3.386215971,2.188660383,2.466346264,-1.242975235,-0.0723650381
0.5531996266,-2.125169907,2.565027013,2.760425091,-1.447482586,-0.1145892069
0.5211421812,-0.8341831715,2.602486099,3.14811945,-1.199806213,-0.1274802387
-1.332504157,0.3775400582,3.066079762,3.588919401,-0.4497365952,-0.001657797955
-3.737420103,1.551064198,3.379394016,4.010333061,0.6022573709,0.3000210822
-5.18559179,2.473900635,2.954835894,4.336500645,1.480594873,0.7515338659
-4.783558803,2.649022224,2.627532862,4.478076458,2.333938837,1.249248028
-4.542772025,2.113945626,2.468944474,4.472278118,3.103775263,1.74941802
-4.022489091,1.747074553,2.48015385,4.395737648,3.675139189,2.258589506
-3.112010323,1.467906314,2.213566861,4.343235493,4.107878208,2.650006771
-1.763548134,1.541404681,1.391755387,4.337110996,4.291400909,2.858402967
-0.08020634014,1.827588352,0.1082709896,4.17950058,3.947882652,2.698670149
4.131745,1.38720956,-2.484183544,3.087431669,2.444708347,1.568712234
13.73855573,-1.045288805,-9.098992729,1.636371374,1.318388462,0.3426571786
11.22672956,-0.6909796924,-10.16283309,0.6258202791,1.012414694,-0.2577892542
3.645622109,1.428550456,-5.655559664,0.01916274056,0.9125282168,-0.256455332
-0.2498977209,1.584688527,-2.270955804,-0.4638640881,0.4797762334,-0.07922276109
-1.833898704,1.738518907,-0.5415969402,-0.4244916737,0.4975965321,0.1654081643
-3.361562007,1.815122254,0.1563338865,-0.1785037369,0.4698753953,0.259727478
-2.72324949,0.8778484179,0.9706652333,-0.05431218073,0.5379709601,0.2081489116
-1.452756968,-0.3331897521,0.6414367861,-0.00554144429,0.6595884562,0.1370475739
0.03517024371,-0.9159306036,0.256735458,-0.02394840494,0.6536522508,0.3127377629
0.6180582486,-2.459082421,0.09548106616,0.2112204432,0.3776347935,0.4069545567
1.631533865,-4.819094811,1.216870529,0.3968801498,0.1912975311,0.4620606601
1.050026355,-7.279713356,1.377323542,0.3825552762,0.04127687588,0.9071965814
-0.6444555494,-5.843166641,0.02096037044,0.3731771111,-0.1702197939,1.139285088
-0.6976160617,-3.575762976,-0.5386427666,0.3072662652,-0.4036352038,1.108171582
-0.1167594165,-2.646366157,-0.722599404,0.102862753,-0.3793157935,0.9435364008
-0.7091714749,-2.041961171,-1.233778994,-0.03806001693,-0.2891390324,0.7724767923
-0.7872489863,-0.3620721477,-0.7006266417,0.0187484175,-0.08222842216,0.5327250957
-0.2892179239,0.4869400519,0.2708598449,0.1711344868,-0.05693292245,0.2838827968
1.053190664,0.09499299038,0.9313543827,0.3741874695,-0.2624075413,0.1953276992
2.251426343,-1.386591136,1.368282742,0.4775487483,-0.3848461211,0.29909271
1.327167764,-3.335562473,1.202393091,0.5404374599,-0.5180723071,0.3695650697
0.9300333632,-4.336057612,1.03590606,0.619812727,-0.7355601788,0.4247439206
0.607983137,-3.846259248,0.8833055143,0.9608931541,-1.126459956,0.440707773
0.5709942996,-2.499497433,1.191059212,1.384549975,-1.609945416,0.4091445208
0.779303288,-1.307751408,1.386039348,1.806839228,-2.182243109,0.275862813
1.574861838,0.3764905491,1.23362468,1.998175859,-2.237042189,0.1610262543
-0.2967236233,2.376601706,0.4768751694,2.249771595,-1.765377402,0.294231981
-3.105875766,4.0471489,0.5908662903,2.303183079,-0.8126235008,0.8197588921
-5.370935497,3.470998533,-1.812625761,2.219062328,-0.1783008873,0.8130918145
-4.069911936,0.9123328713,-3.967269892,1.865628839,0.02319520339,0.4494824111
-2.265023492,3.690397071,-5.190066889,1.651918769,-0.4114802182,0.06766302139
0.1425187117,4.045101905,-4.557078782,1.509430051,-1.502545118,0.009947793558
1.760252307,3.168117994,-2.934412114,1.47101295,-1.543319225,-0.2450577915
-1.472977042,2.63522517,-0.1532113706,1.50618124,-1.795533061,-0.5125161409
0.960977952,1.630589278,2.487509474,1.723464847,-2.590593815,-0.5563887954
2.841424619,2.264535416,3.383227311,2.020637035,-3.410451174,-0.4239884019
2.749743529,2.585256731,3.706605863,2.351358652,-4.013054371,-0.05471090227
1.732402031,2.717275092,3.467271621,2.577029705,-4.439799309,0.4560045898
0.9811715028,2.313119122,2.837865173,2.579138756,-4.227335453,0.9247956872
-1.270942311,2.126020095,2.089275587,2.388334751,-4.135446548,1.408158064
-1.079344146,1.647258088,1.37588591,1.910561442,-4.365628242,1.635154128
0.4188596183,1.787449234,0.5201476172,1.214354873,-4.414820671,1.597452879
-0.2411930209,1.647009082,-0.6202557586,1.23132658,-3.62881279,1.376134276
-2.223275769,2.517121937,-2.683441504,1.98546648,-3.580952644,0.6661081314
2.697287366,3.142220752,-3.087912239,1.699435353,-3.809623718,-0.3018151522
3.921460327,1.648572678,-5.345909777,1.123930693,-4.115702629,-0.7312583923
2.243255312,-0.158002112,-5.270405331,0.7424710393,-3.823616505,-0.7122864127
-1.596540293,-0.7353413967,-4.213115415,0.9557391405,-3.406448603,-0.630372107
-1.876606358,-0.2828460508,-2.151189315,0.9371982813,-2.958070755,-0.6311662197
-1.356247436,-0.4799567688,0.1113105035,0.6777142882,-2.079589605,-0.4316981137
-2.738424263,-0.3066875296,1.749193738,0.6020399928,-1.151168108,-0.291461587
-2.005233907,-0.9833616333,2.49900585,0.8172140718,-0.6688470244,-0.3618068695
0.935624242,-1.397019591,3.187132784,1.276264906,-0.6325520277,-0.6560226083
2.901758384,-1.004869116,2.84201031,1.716701627,-0.8305727243,-1.034038901
3.095546095,-0.4987906486,2.262963636,1.652916551,-0.600515306,-1.399092674
0.6356045728,-1.533721726,0.4127235998,1.298147798,-0.1802972555,-1.648648977
-0.6379766357,-1.70963768,-0.846188082,1.011999369,0.2645329535,-1.780523062
-0.9632279229,-1.204444179,-0.8805228978,0.7783911228,0.7067713737,-1.860944748
-0.9906642114,-0.5566875418,-0.7119163897,0.6321445107,0.9711431265,-1.896584034
-0.3370540263,0.4377677324,-0.5463035105,0.7780932188,1.231914043,-1.989612818
0.1057622217,1.234849254,0.1784372895,0.8169065714,1.416891336,-2.166058302
0.8885980677,0.2918763294,0.6117322604,0.71989429,1.350788951,-2.281597376
1.846961746,0.01047697035,0.5361527033,0.5390838981,1.119978309,-2.139379501
1.813700404,0.6686655693,0.7912360101,0.2487764359,0.9946456552,-1.998921514
1.428122586,-0.334109205,0.6958543127,0.1065004319,0.8110203743,-1.83589232
1.590696536,0.2602957808,1.554520768,0.05353334919,0.7216662765,-1.691220403
1.243015025,0.4262584964,2.134656698,-0.02778952755,0.9971011877,-1.873875976
0.7838219345,-0.3787853821,1.440166367,-0.2068000287,1.262897134,-2.168380737
1.415508895,-0.6597083558,1.235671091,-0.2693959177,1.229933977,-2.279285192
1.950036628,-0.7019231112,2.206582701,-0.1127384007,1.268569469,-2.298354387
0.5774027053,0.2779121015,2.985669131,0.09497958422,1.296587944,-2.17357254
-0.3858811856,0.425620783,2.80823342,0.3004959822,1.444230556,-2.051691294
-1.499599091,0.2963070054,2.188595209,0.3878794014,1.577996135,-1.924884081
-2.190182478,-0.2557978848,1.365489019,0.3451018333,1.495958567,-1.768995404
-2.38127379,-0.7594201914,0.8722636035,0.2248978019,1.244827151,-1.652204037
-2.128672655,-0.8051426627,0.3281239931,-0.1304754764,0.5444988012,-1.60823679
0.06551788957,-2.306268525,0.4217284518,-0.903334856,-1.149038672,-1.335539818
2.814990201,-3.319529622,0.4042693674,-1.459432244,-3.054698706,-1.043435216
2.245755312,-2.388158873,1.398128429,-1.781184673,-4.662669659,-0.9100282788
0.2504571083,-1.423986509,1.921712158,-0.7676458359,-5.372623444,-0.7450683713
-2.801311804,2.55071441,2.300751808,-0.08514367789,-5.134596825,-0.5757580996
-4.359927732,0.4039759374,-0.1445443723,0.4710596204,-5.133749008,-0.8095149398
1.336222301,0.1267974109,-1.986964383,0.751454711,-4.522916794,-0.9365513921
3.878450622,-0.186720257,-4.231007922,0.5856497884,-2.236747742,-0.7015231848
0.1260591598,0.230248433,-5.579217013,0.2226468474,0.5192301273,-0.4502059221
-1.489064253,1.530603886,-5.36403697,-0.08989002556,2.181001186,-0.3232056201
-0.1103928041,1.934346599,-4.286957481,-0.2994458377,2.304558516,-0.2917556167
1.229452363,0.9645108023,-2.41918018,-0.4677224755,1.664730072,-0.08947946876
0.3109311585,0.2135363677,-1.301385673,-0.502372086,0.667981267,0.2338855565
-0.2617453951,-0.1871194854,-0.4874978319,-0.5306836367,-0.321254164,0.4755328
0.08352057925,-1.160481703,0.1192462649,-0.4717051387,-0.8920580745,0.5279733539
0.1988268743,-1.527789998,0.7501312618,-0.4254556298,-0.9652284384,0.5132135749
-0.3741220665,-2.028214385,0.7817166328,-0.4594960511,-0.579818368,0.4866687357
-1.107790562,-2.191457905,0.5333852844,-0.463596791,-0.03222424537,0.4666798413
-1.232694122,-1.928166449,0.6121124919,-0.4221782982,0.3989534378,0.4826304018
-0.8498644325,-1.794898965,0.7846272595,-0.3485373557,0.5608614087,0.5485018492
-0.1193932721,-1.654660474,0.9349158745,-0.2511431873,0.5008435249,0.6239221692
0.6380220092,-1.511182562,1.117476089,-0.1825186014,0.3882656395,0.657707274
1.070495727,-1.614917077,1.202796704,-0.1687182188,0.288146615,0.6465378404
1.359861535,-1.785260784,1.201115034,-0.156142503,0.1258634329,0.6595113873
1.574928181,-1.621498793,1.262902797,-0.181184262,-0.004703132436,0.6802374721
1.4114415,-1.623497274,1.049483334,-0.255438,-0.06434781849,0.6760451198
1.219277591,-1.576300638,0.7179273206,-0.3413953185,-0.04665920138,0.6563612819
1.033907871,-1.440104115,0.5403726591,-0.4275166392,0.024881294,0.626640439
0.9198048147,-1.338634622,0.3937450508,-0.5010898709,0.1058803648,0.6140698791
0.8546820619,-1.150718434,0.3232011498,-0.5678752661,0.1230244637,0.6002483368
1.125345507,-1.022248121,0.1310118137,-0.628513515,0.1275886148,0.5969144106
1.29879098,-0.9236088831,0.01527969446,-0.6737055182,0.0596004948,0.5836532116
1.812303105,-0.8640034325,-0.09491992514,-0.6986470819,-0.03643516079,0.5344237685
2.325855854,-0.7134551436,-0.1066457265,-0.6917800903,-0.08977854252,0.4857862294
2.293051316,-0.3797206171,-0.08160948493,-0.6466298699,-0.05180288106,0.4808312058
1.928199767,-0.09912146849,-0.02107464447,-0.6034549475,-0.002090985188,0.502184689
1.985404002,-0.1450713188,-0.1409378722,-0.5592697263,0.003944474272,0.5236461163
2.249136187,-0.02839490436,-0.2430266661,-0.5289557576,-0.01534000784,0.4949004948
2.3887583,-0.06836334213,-0.3857762639,-0.5005903244,-0.05641968176,0.4111324251
2.592855808,-0.1010726026,-0.2679346051,-0.454177022,-0.1570805162,0.3506784141
2.895698645,-0.1412146433,-0.220986976,-0.405918628,-0.2921663821,0.2858977616
3.029730099,-0.4483902487,-0.1160080136,-0.3487903476,-0.3755515516,0.2217949331
2.720522696,-0.6477776795,0.1359068923,-0.2762299776,-0.3911538124,0.1655865908
2.366234626,-0.6799333977,0.2872325953,-0.2190508246,-0.2991021872,0.1064023674
1.935056209,-0.6303729558,0.3929053851,-0.1733800173,-0.09714905173,0.03314991295
1.685597464,-0.3856055835,0.5602808901,-0.1508680433,0.1027049422,-0.009127769619
1.797311287,0.01411035842,0.5174906729,-0.1296861172,0.2972796857,-0.001640755916
1.836545566,0.8372925357,0.6401821098,-0.1143822595,0.4677971005,0.06482695043
1.678953788,1.766195434,0.5422741088,-0.1078724116,0.5749653578,0.1759582907
1.631961735,2.625639595,0.361785732,-0.08979193866,0.6265217662,0.2933536172
1.575509488,3.515292433,0.3909197643,-0.05380541831,0.6342694759,0.3682073951
1.522580154,4.461230052,0.4359764651,-0.003387783654,0.5790839791,0.3657546341
1.64294607,5.280428713,0.3214607358,0.04711319879,0.483096987,0.2659890354
1.895089524,5.84797141,0.1257698214,0.06791914254,0.3266152442,0.07665318996
2.225815809,5.82363075,-0.3001689415,0.05267388374,0.1645344645,-0.158472985
2.121155703,5.20809822,-0.8970137217,0.001073806547,0.0697850585,-0.3605909348
1.280261636,3.923016325,-1.424166249,-0.08475897461,0.09855367988,-0.427203089
-0.3117611796,2.436840194,-1.527557066,-0.1806689948,0.1627292037,-0.2914942801
-2.041526286,0.8750432974,-1.096176696,-0.2419721782,0.2890174687,-0.05455363169
-3.075267861,-0.5469944153,-0.1382020175,-0.2095205039,0.537896812,0.1309890598
-3.193296859,-1.632358041,1.158716154,-0.09045611322,0.8547605872,0.2292601019
-2.905578819,-2.36646785,2.28532949,0.08331248164,1.131746173,0.2682783306
-2.501177057,-2.81448342,2.990198884,0.2246093154,1.287359595,0.2706282735
-2.065296161,-3.209694452,3.074173929,0.3080946505,1.287436008,0.2720919251
-1.775942336,-3.4032542,2.67771845,0.3159145117,1.161427736,0.315282166
-1.819672464,-3.416677745,1.981469585,0.2834817469,1.03425777,0.409299463
-2.318623857,-3.09086992,1.186564823,0.196209088,0.8805223107,0.5512924194
-2.991274112,-2.274187626,0.1243321899,0.036910519,0.5931224823,0.7394801378
-3.364456559,-1.239746963,-0.7752031592,-0.1416704059,0.2490649372,0.9271846414
-3.656413553,-0.122886375,-1.168751226,-0.2611600459,-0.0284606684,1.04835546
-3.686862175,0.7639496516,-1.015959835,-0.3055381775,-0.1714542955,1.084181786
-3.104710813,1.24067343,-0.9743483057,-0.327447474,-0.08912560344,1.027936101
-2.144940776,1.373863172,-1.560199398,-0.3644693494,0.3695802391,0.8859230876
-1.632797894,1.395959269,-2.39331874,-0.4210226238,0.9572525024,0.6937371492
-0.4852829323,1.095775714,-2.695505743,-0.4946965575,1.521640301,0.4517804086
0.3784890295,0.7034294241,-2.330256719,-0.5574235916,1.948168516,0.2031663209
0.820191471,0.5156920991,-1.588415731,-0.6511110067,2.221473217,0.01251641288
0.8705731662,0.2958417259,-0.7885372726,-0.7405529618,2.340378046,-0.08714467287
0.7436874925,0.1076221703,-0.1601382472,-0.823197484,2.201068163,-0.1038323566
0.9412754727,-0.1930623195,0.06912935807,-0.8007673025,1.810987592,-0.07531602681
0.934019218,0.05031505974,0.7327654087,-0.6499636173,1.185300112,0.01447477285
0.5459387688,0.4423918851,1.392370596,-0.4279752672,0.5727515221,0.09219752997
-0.3053532123,0.8348784603,1.847746466,-0.3138476014,0.2070396394,0.1636023968
-1.468185862,0.2941051114,1.446741654,-0.3171600401,0.0816090107,0.2682697177
-2.22467643,-0.4162269317,0.9225932763,-0.3573824465,0.1599044353,0.3843124807
-2.411170038,-0.6522936957,0.8234270919,-0.3756362796,0.2829076052,0.4912053645
-1.738811168,-0.7528378904,0.9710796593,-0.3214913011,0.3948868811,0.6067605615
-0.9495593169,-0.7542179466,1.182298982,-0.2076994777,0.4609729648,0.7010710835
-0.1585211674,-0.6693272481,1.331233991,-0.04869374633,0.4162466228,0.7094025612
0.7702418836,-0.5450964727,1.398699507,0.07671503723,0.2784810364,0.6481826305
1.254481006,-0.6536088699,1.13392512,0.1420251727,0.08275396377,0.5159680247
1.314533762,-0.8900888908,0.6346072323,0.1559868008,-0.02840238623,0.3863639832
0.6316005979,-0.9046656977,0.2785778719,0.1347265095,-0.01657981426,0.2973765731
-0.11727628,-0.832894593,-0.04365998577,0.08376400173,0.1456977874,0.2410075814
-0.7530373585,-0.694932814,-0.302960618,0.0350754559,0.3571752906,0.2235245109
-0.8321313535,-0.5164993238,-0.3788885502,0.01611161605,0.5064553618,0.2140173018
-0.2736686187,-0.3255330998,-0.2458890698,0.02347019687,0.5411674976,0.2070331573
0.5154756799,-0.232943079,0.009286883783,0.03649038821,0.4617123604,0.1880078018
1.185827887,-0.2550964586,0.1861515172,0.03576600179,0.2873490751,0.1479667872
1.700524838,-0.3221592395,0.0772439832,0.01090033352,0.07245726138,0.1151925921
1.694462177,-0.4861848496,-0.205281165,-0.04686676711,-0.1207361072,0.1056677252
1.192384907,-0.6873445508,-0.6904939547,-0.07597005367,-0.2676030397,0.1323070526
0.5055902457,-0.6633627867,-1.026515131,-0.1024690941,-0.3222998977,0.1884787232
-0.2359060204,-0.6491308477,-1.196875205,-0.1314799637,-0.3195099533,0.2601124048
-0.7210394612,-0.6508084255,-1.166248011,-0.156330362,-0.2437669188,0.3502860069
-1.084327999,-0.5064817877,-1.017181485,-0.1709820181,-0.1426032782,0.4352775812
-1.060107458,-0.4215238691,-0.9456804297,-0.1567138433,-0.06292068958,0.5147053599
-0.7940940299,-0.4449105899,-0.7162848141,-0.1555316746,0.04500497878,0.5581740141
-0.4396470433,-0.6515788254,-0.4057505459,-0.1300419867,0.1570484787,0.5554252267
-0.01824190526,-0.7654898667,0.0265963305,-0.05610090494,0.2158193886,0.5026469827
0.5302641567,-0.6743155579,0.4192909955,0.04060705006,0.2200618684,0.4244551063
0.8413244946,-0.520937014,0.6167120947,0.1080537364,0.1966209859,0.3604196608
0.7326959968,-0.5184855292,0.5228372947,0.1410395503,0.1736436635,0.3260038197
0.3513946133,-0.4649620288,0.2886035914,0.1211859435,0.1822363585,0.3223086894
-0.1163748742,-0.4617331299,-0.02188099242,0.1080917567,0.2070703655,0.3486216366
-0.4411621241,-0.4139677546,-0.1803314327,0.09891290963,0.2933791578,0.3848273158
-0.6436545352,-0.3690922556,-0.2982125467,0.1218732446,0.4086992443,0.4375334084
-0.625360023,-0.3589022855,-0.1348351714,0.1796052456,0.484128505,0.4949596822
-0.2845931136,-0.3615577684,0.177575412,0.2221869677,0.4856189787,0.5234104991
0.229206194,-0.4470680602,0.3685597561,0.2607684433,0.4457820654,0.5044969916
0.5460906714,-0.4468476954,0.5718436099,0.3205825686,0.3903116584,0.4496129751
0.672357994,-0.4114128094,0.748655344,0.3960517645,0.3366114199,0.4027146995
0.4597942342,-0.4152630551,0.7923024703,0.4555774927,0.3693726659,0.3888579011
-0.09307225145,-0.4691717555,0.5669666515,0.4878661931,0.4605382681,0.3989595473
-0.4704711841,-0.5136760831,0.1027592405,0.4777446389,0.5520560145,0.4230761826
-0.4896773679,-0.632916795,-0.3792296187,0.4029697478,0.6165220737,0.4344412088
-0.1429459972,-0.7823176674,-0.7995268686,0.3488502502,0.6290612221,0.4302701056
0.4781353986,-0.7485498378,-0.9357210534,0.3243084252,0.6037366986,0.4200568795
1.066062713,-0.6622375821,-1.018869877,0.3179153502,0.5727567673,0.4059298337
1.292895784,-0.6090542734,-1.107378766,0.3378344774,0.5306047797,0.4079817832
1.270455405,-0.5354442628,-1.200450141,0.3412772119,0.5083073378,0.4285671711
1.014219713,-0.468918073,-1.498341785,0.3048816621,0.5367578864,0.4730840325
0.7269675361,-0.5207078814,-1.813844489,0.2673423588,0.5955639482,0.5456978083
0.6532008736,-0.4807295068,-1.891438016,0.2451821864,0.6511180401,0.6232641935
0.9405179323,-0.4182394406,-1.834998044,0.2283332199,0.6551687717,0.6609913111
1.548703606,-0.2986088526,-1.895130441,0.19610551,0.5915184617,0.6341274381
2.203594333,-0.08705109147,-2.040099761,0.1939846277,0.4603053331,0.561842978
2.437325347,0.2803273459,-1.989316207,0.1782993972,0.3009801209,0.4780692756
2.196551428,0.7263982118,-2.270140688,0.07487665862,0.1698080748,0.416716069
1.444728852,1.058143026,-2.924736816,-0.1068276241,0.06580469757,0.3953697681
0.6031734717,1.430058522,-3.501012271,-0.300383985,0.00937899109,0.4162314832
-0.134625255,1.673176958,-3.703731769,-0.4965482056,-0.04638014361,0.4604231715
-0.1576842052,1.679832324,-3.787501354,-0.6562751532,-0.1889906973,0.45233953
0.7181506079,1.778181055,-3.684469434,-0.7841945291,-0.4256735146,0.3626272082
1.764316196,1.907306032,-3.474000053,-0.8145857453,-0.7414357662,0.1834952831
2.502750298,2.218862629,-3.030257922,-0.7039529681,-1.046795249,-0.04160840809
2.60599966,2.543490889,-2.253093108,-0.5463117957,-1.241579413,-0.2764671147
2.128445276,2.204485144,-1.567663743,-0.4580264091,-1.293182373,-0.5002690554
1.438559808,1.38334061,-0.8369593582,-0.4281489253,-1.300623298,-0.735940814
1.0601304,0.5884446161,0.1326297703,-0.3811417222,-1.236689091,-0.9910407662
0.4917746324,0.07606032637,1.465919525,-0.3030506372,-1.146512508,-1.270554662
0.1741162115,-0.1614887851,2.544592713,-0.1958434731,-1.078270555,-1.544632554
-0.019092823,-0.02677285611,3.39446299,-0.07892331481,-0.9985492229,-1.818813324
-0.2061456729,0.4260036449,3.849138603,-0.01475711353,-0.9659052491,-2.086688757
-0.09582761457,0.8309627481,3.65712024,-0.005616054405,-0.9363697171,-2.340609789
-0.1379226891,1.282798169,3.351574281,-0.01894357614,-0.8981668949,-2.531136513
-0.3611608781,1.805744769,3.212719353,-0.05959711224,-0.8342348933,-2.620327234
-0.6170423495,2.32343301,3.027405455,-0.09686379135,-0.7291963696,-2.578927517
-0.8733109206,2.850234533,2.798500838,-0.1248203069,-0.5826277137,-2.359043837
-1.307066933,3.185024706,2.327139464,-0.1318968683,-0.3747690618,-1.976528764
-1.979442171,3.155142193,1.686383061,-0.1418439895,-0.1457001567,-1.575341463
-2.449698653,2.67368671,0.9829173966,-0.1500473171,0.02480900288,-1.287464619
-2.404442191,2.268120873,0.4029512706,-0.136226967,0.07045254111,-1.138363838
-1.935457191,1.756618042,-0.07134148116,-0.09060301632,-0.02905567363,-1.111749768
-1.152467908,1.256393562,-0.3877595467,-0.03272239864,-0.3141078949,-1.20887351
-0.03638327276,0.830773363,-0.7312251936,0.03823725879,-0.7086962461,-1.389829993
0.6726876644,0.4228939884,-0.9161135589,0.1421134919,-0.9894542098,-1.539931297
0.01352817461,0.06152443602,-0.7576222021,0.2338759005,-1.108151317,-1.589038372
-1.090483161,-0.4235860623,-0.6694368459,0.2635678351,-1.095879674,-1.595258594
-1.635799414,-0.9052367756,-0.5832490933,0.2205918878,-1.015769362,-1.565722585
-1.912633364,-1.2485522,-0.3661073946,0.1557493508,-0.8898459673,-1.511953235
-2.08791482,-1.213919278,0.09270312588,0.09926342219,-0.7699432373,-1.430806398
-2.007900203,-1.097105501,0.6432984883,0.07418051362,-0.676471293,-1.318431854
-1.928019734,-0.8480436468,1.112181198,0.03853889555,-0.6157693267,-1.176092029
-1.752981732,-0.7015864266,1.265965984,-0.02395341918,-0.5500003695,-1.094307542
-1.151025892,-0.6459165618,1.259452072,-0.08579175174,-0.4972015917,-1.017683268
-1.003046577,-0.5290811575,1.370976511,-0.1224327385,-0.4338576496,-0.9374809861
-1.031720298,-0.5088379954,1.502769538,-0.1406058818,-0.3528224528,-0.8835730553
-1.005406,-0.5272831682,1.553761182,-0.1444776356,-0.2625612915,-0.8017778993
-1.313366326,-0.5967442424,1.402614343,-0.1319128424,-0.2202032059,-0.7009700537
-1.465694191,-0.6723802059,1.22868284,-0.1530727893,-0.1918728501,-0.5804921389
-1.580778076,-0.8116963221,0.7923568309,-0.204447031,-0.1814039648,-0.4669194818
-1.45354958,-0.8988806846,0.305703487,-0.2533526123,-0.1703572273,-0.3842980564
-1.131153317,-0.8985434154,-0.08684797011,-0.2897247374,-0.1669723541,-0.3188844323
-0.8486185241,-0.8688350904,-0.3929240898,-0.3230137229,-0.1991191059,-0.2505794764
-0.5462199238,-0.864978415,-0.765729813,-0.3558257222,-0.2367961854,-0.1833564937
-0.3514113452,-0.8038520384,-1.140199962,-0.3813976347,-0.294398725,-0.1120750457
-0.2655404034,-0.7933622085,-1.367843766,-0.3793025315,-0.3603194058,-0.02833833918
-0.2597732182,-0.801253254,-1.285462127,-0.3411125243,-0.4000002444,0.06012095138
-0.4682119705,-0.8808622128,-0.9082540776,-0.2997208834,-0.4243700206,0.1456289291
-0.7303294138,-1.150393439,-0.5002820562,-0.318474859,-0.4466710687,0.2383242399
-1.020892615,-1.433926888,-0.1787161065,-0.3478796184,-0.4659496844,0.362098664
-1.298712946,-1.370468269,0.2668316123,-0.3629928827,-0.4698215127,0.498237133
-1.539405324,-1.264731182,0.6873892667,-0.3522110581,-0.4620631933,0.6465437412
-1.667974129,-1.219867373,1.009390978,-0.3350247145,-0.437276423,0.7753748894
-1.668903226,-1.197525777,1.214536534,-0.3144142628,-0.39568609,0.8757970929
-1.632355118,-1.123945577,1.381067112,-0.2872414589,-0.3169561028,0.9428568482
-1.570952263,-1.019683824,1.560616162,-0.2567658424,-0.2202298194,0.9936491847
-1.406762402,-0.8974924451,1.56890176,-0.2230752558,-0.124802649,1.033149362
-1.023116721,-0.7209469607,1.544570452,-0.1730837226,-0.03944540769,1.064873457
-0.4803776246,-0.3977940339,1.550299643,-0.1227745861,0.01609897241,1.085654974
0.1675742425,0.01376139885,1.501847162,-0.06071094424,0.04636979476,1.073046803
0.9410328961,0.3929980318,1.517237332,-0.001572470646,0.03334912285,1.017566323
1.809493893,0.6601069998,1.42067753,0.02189477347,-0.04787782207,0.9074127078
2.644520821,0.7340332367,1.016609238,0.01428031176,-0.2351637781,0.7844189405
3.252826907,0.6964128234,0.4953410927,-0.0008262027986,-0.4130426943,0.6735997796
3.317847953,0.6519587646,0.06807663414,-0.02858763933,-0.511354208,0.5631791949
3.043683221,0.5913812541,-0.2950283637,-0.05088522285,-0.5128724575,0.441180557
2.804987862,0.5698632497,-0.4467714153,-0.06747563928,-0.4506727457,0.3114663661
2.594959795,0.524127919,-0.4673910095,-0.07349678129,-0.3845267296,0.1938015223
2.280420967,0.384763872,-0.4658540092,-0.07901228964,-0.3590862155,0.08576352894
2.060847657,0.1485842953,-0.4786424714,-0.07339303195,-0.3828115165,-0.002259535016
1.874510847,0.0158937347,-0.3857061213,-0.05309568346,-0.4140420556,-0.06911527365
1.586392116,-0.01688742191,-0.2140469476,-0.008305840194,-0.3749481738,-0.1341861486
1.264918229,0.01350596278,0.118121937,0.04701685905,-0.3047948778,-0.198192969
1.193108546,-0.02404196984,0.4114610325,0.1046497971,-0.2810016572,-0.2604552507
1.313044254,-0.0822293704,0.6538947011,0.1456212848,-0.3277501762,-0.3002328277
1.447182383,-0.2025362503,0.8209621631,0.1502202898,-0.4405454397,-0.2876344919
1.41978818,-0.3053466364,0.9133803346,0.1379590034,-0.563500464,-0.2228984982
1.281046941,-0.4651859007,0.9604352235,0.1215366274,-0.680069983,-0.1230997369
1.238695408,-0.695694446,1.079751046,0.09722223133,-0.7847828269,-0.006275115069
1.260754972,-0.9625438862,1.228868133,0.0444345884,-0.7640547156,0.09880769998
1.258300564,-1.339948628,1.131457268,0.01527797803,-0.6738784909,0.199389562
1.24104957,-1.579680928,1.202428747,-0.02233571,-0.5316289663,0.2859617472
1.212937282,-2.083596665,1.049565459,-0.06323408335,-0.3772334754,0.3915440142
1.156362869,-2.416934885,0.8817699753,-0.06164231151,-0.1594137847,0.5545220375
0.7824979924,-1.919893711,0.8875494355,-0.01193494536,0.1114581823,0.8081632853
0.5497352385,-0.4481768982,0.5885644431,0.04091761634,0.3578397334,1.058264971
1.007172717,0.9501490995,-0.4830561962,0.0596559979,0.6582414508,1.238562703
1.182609071,1.942853731,-1.662704956,0.06594958156,1.063457489,1.366809845
0.3546840833,3.0544431,-1.847420888,0.1764948815,1.381546378,1.444078207
-1.034069199,4.210814445,-0.6943602748,0.4359597266,1.272595882,1.332127452
-0.5990381986,5.401987054,0.5854270218,0.7675672174,0.6053643227,0.9184629917
2.151844564,7.184089082,0.710729518,0.9972880483,-0.3116342127,0.2797197402
4.41915149,8.720523573,-0.6135390176,0.9562965035,-0.7921317816,-0.2171617895
2.801212143,9.286070129,-2.812445485,0.5733773112,-0.4170444608,-0.2399424613
-2.069869168,7.376864401,-4.213464375,-0.01292633545,0.2153673768,0.1044578031
-4.902242465,2.411657237,-3.461663134,-0.2971228957,0.7464647889,0.4795848131
-4.939290632,-0.5775269162,-0.08865560405,-0.2270916998,1.111693621,0.7266995907
-4.478639744,-1.471187236,3.017006811,0.002754800953,1.258832097,0.8663698435
-3.902502237,-2.033115601,4.412224906,0.2805506289,1.264599085,0.8971976042
-3.326118645,-2.525443191,4.767988893,0.5301380754,1.110029817,0.8717013001
-2.761400942,-3.163852154,4.390494136,0.7176856399,0.8173750639,0.8133203983
-2.411341888,-3.791449215,3.697366033,0.7935950756,0.4797043204,0.7519134879
-2.524436937,-4.114434968,2.521052555,0.7686575055,0.1286312789,0.7238684297
-3.143142835,-3.600838965,1.07954851,0.6788349152,-0.251966387,0.7337644696
-3.863208337,-2.151673591,-0.2994119856,0.5899490118,-0.5473437309,0.7132093906
-4.226158144,-0.8648457285,-1.183601882,0.5110874772,-0.6179966331,0.6085175872
-3.898317644,0.06455752011,-1.929913293,0.3751648664,-0.1263045371,0.4339087605
-3.402372156,0.69403908,-3.056689125,0.1732932478,0.9929423928,0.2741742432
-2.369600449,1.345517952,-4.071944611,-0.0130267255,2.082216263,0.147954002
-0.3948997738,1.54275785,-3.65008055,-0.1295195073,2.677308798,0.0883154422
1.273116733,0.978532898,-2.512212246,-0.2395447642,2.762027979,0.1004167721
2.147147492,0.2980570639,-1.75958566,-0.360524714,2.479874611,0.1295070201
2.46759306,0.07092120992,-1.253742755,-0.504003942,1.993396759,0.1298110187
2.360402266,-0.04601648577,-0.9710933956,-0.6243034601,1.468352437,0.1096674055
1.843650868,-0.06436755049,-0.4503142025,-0.6908756495,1.005533338,0.07222308964
0.9095346189,0.0008235913426,0.2502007955,-0.6726122499,0.6867486835,0.04994840547
-0.3323626536,0.07955576727,0.9300053062,-0.5784565806,0.4603150487,0.09187482297
-1.528047626,0.09350830478,1.574686481,-0.4479393661,0.2345024049,0.1623673737
-1.878482527,0.1033259344,1.848737231,-0.3557415605,0.009136902168,0.2603478432
-1.912923872,-0.2038467483,1.448330676,-0.3215300739,-0.1192748621,0.4138026536
-2.457624623,-0.6237947464,0.8758557828,-0.2645699084,-0.1231644824,0.6422294378
-3.070442049,-0.706241559,0.6720923289,-0.1673094034,-0.1425917149,0.8257558942
-2.134881154,-0.7182686814,0.6203954594,-0.05981505662,-0.2333713025,0.9036210179
-0.5906511862,-0.8885667958,0.5948001226,-0.005227981135,-0.3505288363,0.8440546393
0.6979610757,-1.100326217,0.4433873259,-0.005558057223,-0.3946175575,0.6770477891
1.219873949,-1.217187925,0.3826198457,-0.04144681618,-0.318801105,0.4569985569
1.01756274,-1.257739715,0.3575821428,-0.08076171577,-0.102686353,0.2263972014
0.3738040865,-1.209201018,0.5459758859,-0.07280153036,0.2067604363,0.04569400474
-0.3650398384,-0.9896966815,0.8920926319,-0.07816073298,0.5077001452,-0.08412469178
-0.6024154199,-0.7493442031,0.8874509435,-0.1042581201,0.723151505,-0.1787001938
-0.4281437987,-0.4966980603,0.6938593395,-0.129203409,0.8589602113,-0.2246282697
-0.1195464169,-0.2891670705,0.595218348,-0.1318213046,0.9342570901,-0.2214596421
0.3058533438,-0.1964817725,0.4944581724,-0.1306076348,0.9473298192,-0.1831524819
0.8056699014,-0.3369453052,0.1293009182,-0.1328252405,0.8874496818,-0.1180624366
1.192585837,-0.684532416,-0.3996545671,-0.1337321252,0.7409568429,-0.05135449767
1.439048323,-0.9026689709,-0.7871694914,-0.1356296241,0.5726200342,0.004697587341
1.404285783,-1.015907812,-0.9569561492,-0.1318500042,0.4282096624,0.06775125116
1.10494394,-1.000840591,-0.8971236118,-0.1186244786,0.3316399753,0.1257881969
0.7804908904,-0.8937006516,-0.742612849,-0.08160084486,0.2934420705,0.1897410005
0.4780991583,-0.766336839,-0.4700988072,-0.02539856173,0.3467042446,0.2491388172
0.2105050372,-0.6123492233,-0.1262315937,0.03321266919,0.4892551303,0.3120834827
0.06462342495,-0.5133019891,0.1782797609,0.08493392169,0.6678704023,0.3485144675
0.182487734,-0.4563222108,0.5251619382,0.1309765875,0.8280420303,0.3686528206
0.3799181855,-0.4799491701,0.8135369815,0.1899853051,0.9346353412,0.3446819782
0.8736066156,-0.460413864,1.06905488,0.2567766309,0.9711264968,0.2669495046
1.516005452,-0.4808896658,1.155186811,0.3079703152,0.9160653949,0.1597348899
2.098543474,-0.56703884,0.8609902221,0.3267094493,0.816965282,0.05741111562
2.049021611,-0.7105792959,0.3957233651,0.3554460108,0.6675872207,-0.009593748488
1.605268959,-0.7130290271,-0.03035422173,0.3912270069,0.5213358402,-0.001082680887
0.7039771212,-0.8501280518,-0.3743307408,0.4016282558,0.4624448419,0.08118902892
-0.2607306285,-1.065251981,-0.7474965294,0.3892907202,0.5095173717,0.1993581355
-0.8590344119,-1.170127483,-1.10487409,0.3372056782,0.6629639268,0.2827664912
-0.8843278431,-1.245624915,-1.450158476,0.3018151522,0.8090337515,0.3205810189
-0.3526549155,-1.32584996,-1.56474844,0.285097152,0.871920526,0.3128376007
0.5157061276,-1.5451351,-1.696722669,0.2338026017,0.8208150268,0.2792291343
1.494278773,-1.823978929,-2.282045061,0.1776008606,0.6924717426,0.2285294682
1.94395497,-1.799995996,-2.755764982,0.1646381766,0.56664747,0.1995236427
1.960280666,-1.378995859,-3.06970409,0.08488582075,0.4921005368,0.2171742767
1.684625404,-0.8634113118,-3.789125448,0.04479513317,0.4437785447,0.2855091393
1.235706747,-0.05178396325,-3.975898312,0.04478847608,0.3830233216,0.36853531
1.014770917,0.6054699852,-4.158592675,0.01645269245,0.248434335,0.4373440146
1.340306939,1.084787287,-4.623833228,0.004161139484,0.03228766471,0.4911497235
1.555040408,1.496103066,-4.708857198,-0.05061404407,-0.2812463641,0.5103250146
1.827148207,2.007234725,-5.164079046,-0.104321219,-0.5957275629,0.5113655329
1.564914152,2.48922563,-5.389246815,-0.1842429489,-0.9190092683,0.4870856702
1.155422666,2.95350786,-5.769377182,-0.3041403294,-1.139487863,0.4556995034
0.5307949757,2.967755581,-5.824346789,-0.4016345143,-1.345694661,0.3773178756
0.5343383474,2.67646845,-5.259914917,-0.4608541727,-1.465578675,0.2853655815
0.08921908315,2.315776943,-3.89223131,-0.5563073754,-1.523651004,0.1690616161
-0.3524398115,1.801582973,-2.426063656,-0.6138519049,-1.537252069,-0.01220617816
-0.5819418101,1.601803328,-0.5985556757,-0.6020811796,-1.547797561,-0.2466228008
-0.6906932767,1.50301796,1.188111468,-0.5335649848,-1.525240302,-0.5225995183
-0.640072512,1.430399298,2.71653801,-0.4226327837,-1.484141231,-0.837890327
-0.4258499156,1.519623058,4.040540296,-0.2821843028,-1.421772957,-1.184876919
-0.1728045809,1.839952744,5.027239549,-0.1190198436,-1.397632957,-1.538284183
0.2150058557,2.330257888,5.594163238,0.06182237715,-1.414379001,-1.881934166
0.5509761784,2.846182627,5.794831356,0.1892691702,-1.477074623,-2.182241917
0.9356943116,3.180804458,5.512105133,0.2506731451,-1.540043473,-2.399645329
1.010443263,3.31571211,4.931522336,0.2218518406,-1.522539854,-2.480301619
0.5578761671,3.038627107,4.164881838,0.1308388412,-1.354321599,-2.403023005
-0.2496272334,2.527937346,3.319280324,0.03136507794,-0.890578866,-2.174365282
-1.858792469,1.794852204,2.679202259,-0.02853127941,-0.1936343908,-1.87635076
-3.174937904,1.134165358,2.34206523,-0.08160749078,0.4372261763,-1.678888917
-3.277418912,0.5574006585,1.93685449,-0.1285129488,0.8645197153,-1.598660111
-2.948451453,0.2778717695,1.427751999,-0.1923615634,0.9927114248,-1.55553484
-2.544189977,0.1707207238,0.672262717,-0.2733852863,0.8593254089,-1.524059653
-2.134566389,0.1675350795,0.0121551327,-0.3475345671,0.4779618382,-1.509034514
-1.527348683,0.1921843676,-0.6218897896,-0.3237059116,-0.05516892672,-1.561844468
-0.624330753,0.2481348029,-0.8502700907,-0.1632762998,-0.7067802548,-1.614559889
-0.05260287842,0.3587210837,-0.8774860144,0.08823741972,-1.266684294,-1.568193197
-0.6110977619,0.03745616269,-0.8120826911,0.2815223038,-1.638753891,-1.408023477
-1.439250421,-0.66720368,-1.074554939,0.3607436121,-1.806378603,-1.152602077
-2.283600182,-1.254647595,-1.140991113,0.255828768,-1.770213008,-0.943472147
-2.397054711,-1.718482081,-1.162829727,0.03879177943,-1.584234118,-0.8579996228
-1.973916393,-1.79577984,-0.8777417427,-0.148874253,-1.304612994,-0.8613630533
-1.591338925,-1.385574068,-0.09172405171,-0.2743586898,-1.015576959,-0.8877792358
-1.390716692,-0.9260784881,0.5723296399,-0.3259723783,-0.742508471,-0.8973246813
-1.523280411,-0.5723550666,1.244798109,-0.3095414639,-0.4762147963,-0.8751479983
-1.757533404,-0.4257219053,1.828894466,-0.2665677965,-0.2620824277,-0.8255690932
-1.864142598,-0.442575425,2.09901606,-0.2491147816,-0.1174354926,-0.7315954566
-2.000733088,-0.5907949786,2.055137463,-0.246053189,-0.06611314416,-0.597247541
-2.030370686,-0.7248205872,1.961091983,-0.2225731462,-0.1116255,-0.4268957675
-2.100564751,-0.8257219249,1.907146165,-0.1751869172,-0.1310545206,-0.2677854002
-2.179673943,-0.7278525023,1.610909302,-0.1780753881,-0.08889134228,-0.104614608
-2.386115384,-0.942056394,0.8451461718,-0.2873741388,-0.1751130223,0.02457793988
-1.609772115,-1.246028235,-0.4763108136,-0.4041574895,-0.2813182771,0.1292724013
-1.296108317,-0.9916127443,-1.197713701,-0.4435745478,-0.2938595414,0.217472285
-1.186463116,-0.5359019434,-1.294215343,-0.3479579985,-0.155656904,0.2956025302
-1.217384909,-0.1498544614,-0.3657955521,-0.1985101402,-0.05779367685,0.3684014678
-0.7761845715,-0.549107462,0.6900669615,-0.1330858618,-0.1095239818,0.4424743652
-0.1376984519,-1.290185941,0.9087176035,-0.1304377764,-0.2340226471,0.5166609883
-0.01263414838,-1.521031755,0.8826055493,-0.1151019633,-0.337777555,0.5993020535
-0.2967839752,-1.523472134,0.7869044107,-0.09825390577,-0.4171431363,0.6832107306
-0.642103141,-1.581798651,0.4894844756,-0.08552531898,-0.4543259144,0.7786727548
-0.9564216039,-1.713500785,0.2954576951,-0.08911990374,-0.4718392491,0.8685624003
-1.161951775,-1.819429011,0.1834434272,-0.09749874473,-0.4560373724,0.9455543756
-1.25990683,-1.832856648,0.1402151109,-0.09994278103,-0.3817072809,1.022361636
-1.37917443,-1.746566604,0.1820022885,-0.1020791754,-0.248598218,1.117728353
-1.459332547,-1.51317695,0.2572930918,-0.08763242513,-0.05680145696,1.229679465
-1.335767542,-1.169188156,0.4447048382,-0.06424853951,0.1108607799,1.318907619
-0.6513339107,-0.7953244485,0.6970224797,-0.02381418273,0.1835793108,1.345298886
0.5735431073,-0.3290197729,1.009349477,0.0236646533,0.1515049934,1.283461571
1.855945263,0.2484422614,1.241171735,0.04531215876,0.03044170141,1.12958765
2.996704028,0.794148975,1.133366901,0.01349883899,-0.09223309159,0.8803397417
3.66821505,1.282078038,0.7520210211,-0.04162636027,-0.1502115875,0.6011221409
3.772259069,1.702416497,0.4221341099,-0.1037603021,-0.1329710931,0.3440911472
3.65835095,1.909953332,0.1798167612,-0.1519853473,-0.09657951444,0.1158107072
3.760841603,1.916171475,0.1155798513,-0.2024962008,-0.1037133262,-0.08969344944
4.112745408,1.721495876,0.1208101532,-0.2564941943,-0.1652164012,-0.281794697
4.359032537,1.486281345,0.1759527792,-0.3070878685,-0.1875877529,-0.4681475461
4.205630612,1.192600012,0.2506424018,-0.3601996601,-0.1248674765,-0.6446892023
3.606387539,0.6051368077,0.1502051745,-0.4308397472,-0.07266845554,-0.7514793277
2.894585131,-0.1936591163,-0.009371054935,-0.4814768136,-0.09428294003,-0.7465593815
2.085757058,-0.7708978633,0.1495195303,-0.4608761966,-0.2153893858,-0.6461867094
1.459600258,-1.097549153,0.613570874,-0.3427783549,-0.395480901,-0.4669487178
0.9990408485,-1.272436349,1.037208082,-0.1782482713,-0.5092705488,-0.2592330873
0.6591290946,-1.597752007,1.100821015,0.01186690014,-0.4344391227,-0.04788587242
0.3287468012,-1.772366231,1.110487546,0.2167750448,-0.2494959086,0.2170770913
0.3843190508,-1.185598024,1.002387529,0.3582822978,-0.04982065409,0.5370914936
0.7536965531,0.08041501445,0.2277668454,0.4074455798,0.1523588151,0.8006464839
0.9200897691,1.063513613,-0.7766337766,0.4169251323,0.350674808,0.9003968835
1.042355674,1.871187255,-1.301220253,0.4537156224,0.5106261373,0.9033644795
1.149856848,3.112750912,-1.37199241,0.5187527537,0.6135749817,0.9003638625
0.247645558,4.330003719,-0.9447311661,0.63231498,0.585223794,0.8651723266
-0.5561632257,5.060077404,-0.2779831209,0.7615891099,0.3855060935,0.7320082784
-0.1265662325,5.852813005,-0.3702975397,0.784925282,0.05839853734,0.4218730927
1.328122581,6.328921866,-1.26641139,0.6207283735,-0.2857361734,-0.01171588339
2.701083836,6.126183372,-2.244781206,0.2390976548,-0.4179661274,-0.3535144925
2.191504374,4.097586125,-2.311385138,-0.188574791,-0.1778291017,-0.3280939162
-0.7896575088,1.490298179,-0.9331570482,-0.4461235106,0.3785401285,0.01077497192
-3.694571142,-0.2634597978,1.252657298,-0.4741718173,0.9849923253,0.4140047133
-4.594479123,-1.495860489,3.186509099,-0.3162005544,1.414657116,0.7118502855
-4.017861723,-1.950439656,4.42426781,-0.05871703476,1.62484622,0.8666939139
-3.086429307,-1.821345074,4.847315236,0.2032280266,1.66259861,0.8985562325
-2.507689215,-1.715882712,4.641290851,0.3988863826,1.5305233,0.8909004927
-2.257736842,-1.669688531,3.782913442,0.5365275741,1.315171361,0.8928672671
-2.347629002,-1.669216822,2.701148717,0.6251655817,1.053587079,0.9284831285
-2.833853307,-1.379400933,1.332295775,0.658634901,0.6806633472,0.9671604633
-3.188806854,-0.7361731714,-0.001788636982,0.7013362646,0.1642651707,1.008833885
-3.364664649,0.199606042,-0.5265276736,0.7980098128,-0.3484646976,0.9514315128
-2.883030302,1.059300379,-0.3545712705,0.8902628422,-0.5812368989,0.8159372807
-2.207397817,1.094465216,-0.5260971732,0.8679378033,-0.384331286,0.6474185586
-1.332702164,0.6557716009,-1.389479551,0.7245364189,0.1107442006,0.4673040211
-0.3193945971,0.2519043845,-1.665364531,0.5481360555,0.5690236688,0.2909761369
0.5865361521,-0.1026087261,-1.296746615,0.3619687259,0.8991454244,0.1405570656
0.7011211472,-0.3860615106,-1.206166765,0.1142191067,1.070568323,0.04447474331
0.6309706294,-0.5768699136,-1.583103888,-0.2200497389,1.168556929,0.01959403232
0.4094774575,-0.7262526658,-2.071777925,-0.5415555835,1.269757032,0.03038010001
0.3343964975,-0.8077128054,-1.767793224,-0.7085335851,1.359424949,0.02592730336
0.388158629,-0.7081845097,-0.5273644167,-0.7563320398,1.400766492,0.01745285839
0.03366144658,-0.5732791957,0.41788259,-0.7200503349,1.332210898,0.009138857946
-0.6030430503,-0.09465689029,1.006119409,-0.6475386024,1.127393365,-0.01706505008
-1.015785793,0.3173421946,1.248795946,-0.5595992208,0.8875641823,-0.00000196203473
-1.781933832,0.1944189948,1.2809201,-0.4509159029,0.6628450155,0.08043828607
-2.402509031,-0.05825462057,1.151576512,-0.3225730658,0.4091963172,0.2256198376
-2.319668251,-0.2875309937,0.8078875775,-0.2166815251,0.1395587027,0.4077747166
-1.914662532,-0.5448164868,0.1886561935,-0.1440339684,0.00697587803,0.5940933824
-1.693249001,-0.7242892568,-0.2374427285,-0.08838614821,0.004274367355,0.7401123643
-1.199104425,-0.8526713066,-0.410892585,-0.01778564043,0.05288595706,0.7988279462
-0.3513105152,-0.8869424095,-0.2789911289,0.03600595519,0.1074474677,0.7570770383
0.3933234644,-0.8996937545,-0.08251812421,0.07733123004,0.1564583629,0.6110338569
0.8045522956,-0.8760703023,0.1507289061,0.08520060778,0.2132116556,0.4240272641
0.693318949,-1.025002973,0.1553314315,0.0675585568,0.2984336615,0.2561593652
0.2522504215,-1.139651681,0.06701426561,0.02930517867,0.3955769837,0.1413576752
-0.2468530194,-1.114688504,0.01284077687,-0.01024496369,0.5402185321,0.08676815778
-0.7313095108,-0.9074450993,0.08172025183,-0.03312844411,0.7268717885,0.08552739024
-1.121201832,-0.6966682594,0.2721422859,-0.04551628232,0.8922448754,0.1233153641
-1.019603598,-0.544247747,0.5159346757,-0.04416179657,0.9929413795,0.1746816188
-0.4821836511,-0.3920324017,0.7773287731,-0.02241703682,0.9850789905,0.215781197
0.385701372,-0.2334592118,1.072433417,0.01882440969,0.8604350686,0.2296032608
1.220365897,-0.2257844394,1.302265086,0.06412967294,0.6465268731,0.2219495326
1.79828627,-0.3936515273,1.325430273,0.1047042683,0.4117729664,0.1995270401
1.956750154,-0.5547662184,1.021454925,0.1483609378,0.2567514181,0.1797890216
1.576674148,-0.687604663,0.6761451114,0.163923651,0.2582473159,0.1828655154
0.8798515745,-0.8660060044,0.3165145116,0.1643788815,0.3727628291,0.2056602389
0.4915080904,-0.8359948971,0.1252969432,0.1701829731,0.5257683396,0.2328934669
0.4776842208,-0.660165452,0.1464823546,0.1837688833,0.6778172851,0.2530278265
0.6364519834,-0.5257733481,0.3021200756,0.2214560807,0.8044932485,0.2393977791
0.8366554068,-0.4095703965,0.4844447279,0.3094895482,0.8885341287,0.2114217132
1.031409917,-0.2710591669,0.6243342601,0.3851739168,0.9015620351,0.1588487923
1.304911216,-0.2961918546,0.4874459556,0.4202610552,0.8756552935,0.1061806604
1.328120243,-0.5799532666,0.02401654314,0.4249759018,0.8439692259,0.05711910501
1.065729535,-0.8293547284,-0.5946139524,0.4061686099,0.8091862202,0.02510730736
0.7027016944,-0.9917664735,-1.271436817,0.3653412759,0.8019562364,0.03272501379
0.2126291897,-1.090955747,-1.879715722,0.3228344917,0.8422780037,0.07669007778
-0.1449625794,-1.113163487,-2.286098428,0.2908531129,0.8764948249,0.1744208932
-0.1659352431,-1.142245204,-2.3571608,0.3368244767,0.8281010985,0.2839719653
0.3050070292,-0.9918372007,-2.109268282,0.4161874652,0.6988469362,0.3922995031
0.851093682,-0.9228034119,-2.045660317,0.460714519,0.5223860145,0.4828872383
1.303832774,-1.077757242,-2.258247129,0.4278663099,0.3484676778,0.5479147434
1.525291751,-1.270093586,-2.668540579,0.3629906774,0.2070411295,0.5647562742
1.86328978,-1.295295831,-3.160534115,0.2510740161,0.1707374603,0.5357810855
1.978559835,-1.157326454,-3.603000527,0.1896012723,0.2070149779,0.5271248817
1.98529645,-0.6711264064,-3.610446751,0.1438494921,0.1991272271,0.5287626982
2.289650568,-0.08432429685,-3.815411105,0.1385017633,0.04580573365,0.5383054018
2.504096452,0.5079489376,-4.070194552,0.1303594112,-0.1334556341,0.5491295457
1.994738232,1.080689789,-4.276641839,0.04562769085,-0.2960568666,0.5478753448
1.391437992,1.380715522,-4.705841065,-0.06588073075,-0.4688307643,0.5300351381
1.040007065,1.685544857,-5.00764696,-0.1624105126,-0.6645177603,0.4951473176
0.7394944978,1.95004978,-5.115035321,-0.3187593818,-0.9233580828,0.423366338
0.9809996534,1.889884357,-5.568240861,-0.5099458694,-1.197101235,0.3220861256
1.31778648,1.695854069,-5.642563989,-0.6302195191,-1.539984584,0.1889243424
1.503371596,1.655220446,-4.860828213,-0.670755446,-1.893442154,0.04990227148
1.184237841,1.555432622,-3.675374566,-0.7427151203,-2.145406961,-0.1204058155
0.4156026624,1.273331837,-2.363076746,-0.7840736508,-2.206772327,-0.3280028999
-0.5806020859,1.233580841,-0.5978530804,-0.7594977617,-2.083955526,-0.5727591515
-1.134880813,1.241595805,1.380761115,-0.6873802543,-1.932151914,-0.9109440446
-0.6639502312,1.548992945,2.907031356,-0.5239362121,-1.802246094,-1.307121754
-0.1979214499,2.340138646,4.315180244,-0.3225145042,-1.66345346,-1.725351453
0.02909048541,3.099364192,5.050573663,-0.1537316144,-1.598809838,-2.127945185
0.6091559802,3.699566466,5.232866751,0.01871549338,-1.64297843,-2.4626441
1.071613333,4.278675098,5.411058249,0.1568222344,-1.679482937,-2.680083513
0.9961106402,4.625807451,5.132852718,0.1918645799,-1.591252446,-2.721191168
0.2326423424,4.279557726,4.433007289,0.1520085037,-1.276128531,-2.515892029
-1.182213934,3.815804489,3.848047593,0.03944015503,-0.6385278702,-2.131628513
-3.00482479,2.994924743,3.208995656,-0.02696747333,-0.02316998318,-1.843710542
-3.244496301,2.144348363,2.512187988,-0.1055851653,0.3080413938,-1.704850674
-2.636330501,1.407877085,1.533346463,-0.2170195431,0.3406992257,-1.684264898
-1.990072286,0.8582254336,0.5324830749,-0.344722569,0.1614357829,-1.711646438
-1.688121429,0.4376601804,-0.2343237197,-0.3901518285,-0.1551813036,-1.781346321
-1.38953245,0.2960182516,-0.5170885219,-0.3043976426,-0.4824565053,-1.850282669
-1.404027132,0.2571574828,-0.5816688383,-0.07236547023,-0.8303063512,-1.819833755
-1.589355058,0.2175000106,-0.7232061378,0.2328361273,-1.183758855,-1.640615463
-1.952838534,-0.0530804328,-0.7879711631,0.474933207,-1.476706266,-1.401902795
-1.929994834,-0.9807201789,-1.079594395,0.4624693394,-1.659314871,-1.202545524
-1.497326762,-2.292221295,-2.0233573,0.2490595877,-1.651555538,-1.033387303
-1.427661106,-2.975485299,-2.477259298,-0.0254970938,-1.516487718,-0.859018445
-1.387649413,-2.877706477,-2.195880982,-0.2672074735,-1.276253462,-0.7791334391
-1.110701773,-2.347142387,-1.504660759,-0.4264227748,-1.07052958,-0.7442575693
-1.192973521,-1.75182204,-0.6019724984,-0.4419972003,-0.8276523948,-0.6818765402
-2.04159526,-1.016826096,0.7435843244,-0.4887086749,-0.7013489008,-0.6218321323
-1.992141201,-0.9520698384,0.8698714477,-0.5491531491,-0.5409688354,-0.5646628737
-2.211826154,-0.7623936543,0.8750479736,-0.5961090326,-0.3984405994,-0.4734371006
-2.48060364,-0.3797065886,1.06602998,-0.6462108493,-0.3441464603,-0.324437499
-2.635303496,-0.2816583023,0.9927522697,-0.6654204726,-0.3420476019,-0.1616149694
-2.668834302,-0.1879337244,1.215150866,-0.6600275636,-0.3723450601,-0.02139607631
-2.680855287,-0.2456172671,1.328435008,-0.6610329747,-0.4336553514,0.1301532239
-2.9041596,-0.504915269,1.362622524,-0.6570773721,-0.5227788091,0.2652383447
-2.994710224,-0.790519094,1.515486396,-0.5856540799,-0.5391463637,0.3429659009
-2.853663338,-0.8172416813,2.066913826,-0.4043101072,-0.4374144375,0.3787630498
-2.585723764,-0.7900263421,2.778876685,-0.1998721957,-0.3447912037,0.4400224686
-2.02516698,-1.047421725,2.710188641,-0.05460154638,-0.2690599561,0.5316117406
-1.341934833,-1.305238549,2.001677091,0.01899255998,-0.1948565245,0.6481732726
-0.7607061396,-1.402951904,1.409141114,0.04392427579,-0.1140367761,0.7411447763
-0.4559826035,-1.294989542,1.068396709,0.07133028656,-0.01633342355,0.7936015725
-0.437182626,-1.141481819,1.00841278,0.1127922386,0.04308622703,0.8345511556
-0.4530225847,-1.176948269,1.011110641,0.1499236971,0.04189798981,0.8650733232
-0.5192097518,-1.292951899,0.9246355958,0.1706465483,0.01191159431,0.8676019907
-0.6562333732,-1.37634739,0.7864829704,0.1840440333,-0.01246812753,0.8517819047
-0.9209548615,-1.349460552,0.6352718337,0.1752785146,0.02784920298,0.8530123234
-1.263660338,-1.101243916,0.4652651034,0.1539824903,0.1294761747,0.8967615962
-1.214461715,-0.638644525,0.4257309654,0.1230653226,0.2192073911,0.9828351736
-0.2859077764,-0.1467600025,0.5454790423,0.0850154683,0.170077458,1.070973992
1.765895282,0.208364518,0.6313450157,0.03386812657,-0.06608953327,1.081209779
4.260622724,0.347726227,0.5822147818,-0.02135662548,-0.424041152,0.9358742237
6.009174949,0.3665887483,0.2988458762,-0.07606514543,-0.6210793257,0.6697738171
5.730380804,0.2686597045,-0.2156646119,-0.1438857019,-0.5479020476,0.372877419
4.152981849,0.03750117088,-0.9443488888,-0.2351056188,-0.3104604781,0.1141095087
2.714799057,0.01496083777,-1.542735053,-0.3232093751,-0.03891470656,-0.1050376371
1.976696379,0.2732166372,-1.561827876,-0.4005672634,0.1513425857,-0.2837482691
1.871091394,0.6390799938,-1.189813888,-0.480404377,0.2570590973,-0.4213648736
1.96999279,0.9088163877,-0.7429419348,-0.550958693,0.2835032344,-0.4917652607
1.954930537,0.6155623401,-0.1843047203,-0.6045476794,0.2161449194,-0.4976596236
1.951959413,-0.1595744759,0.1819286388,-0.6126194596,0.04010891169,-0.4191965163
1.942220986,-0.9486731817,0.3749360132,-0.5686142445,-0.2217869163,-0.2688495517
1.860553633,-1.633916376,0.3093722386,-0.4989800453,-0.5183508992,-0.07735602558
1.928971044,-2.322894081,0.1176364916,-0.3974811435,-0.7366359234,0.1348806173
1.857421765,-2.874434908,-0.165426709,-0.2712342441,-0.7174127102,0.3670211732
1.341404087,-3.132438778,-0.4781488426,-0.08659761399,-0.3799218237,0.6657532454
0.776913178,-2.238133147,-0.5840592406,0.1237668097,0.1306794137,1.1234231
0.8939055265,0.3269815451,-0.9006161301,0.2938466668,0.688292563,1.558361888
0.502238451,2.854436076,-1.924302467,0.4437837005,1.243508697,1.703093767
-1.054609883,4.588585681,-2.455249711,0.7043658495,1.591025472,1.579648614
-2.529142046,6.018872752,-0.6362731197,1.130875111,1.589915156,1.258012533
-3.227640735,7.276313192,1.62294607,1.512239575,1.147661924,0.8101993799
-1.735612664,8.577366564,1.895429424,1.624629974,0.2435664386,0.1665360034
1.881204207,9.343311188,0.799222625,1.333066463,-0.8050711751,-0.4405971467
4.049661468,7.765267506,-0.6277157192,0.7689508796,-1.17986238,-0.6215416193
1.589483653,4.331345197,-0.4967281632,0.2666695118,-0.783342123,-0.4026271701
-2.185818145,1.06661041,1.222294016,-0.009938107803,-0.04979116097,-0.04702087119
-3.773590318,-1.173365734,2.978988046,-0.08271142095,0.6485812068,0.2915460467
-3.833617501,-2.427473815,3.991979971,-0.01168997679,1.103955984,0.5121116638
-3.309336145,-2.736010188,4.342276633,0.1159710959,1.257548213,0.6032958627
-2.620950853,-2.65309225,4.032408135,0.2298718393,1.164673924,0.5848446488
-2.069954508,-2.70711844,3.245906752,0.328001231,0.9935767055,0.4934661984
-1.949002901,-2.705804434,2.453112114,0.3840381205,0.8250494599,0.3940000534
-2.426516368,-2.547139475,1.244399172,0.3431696892,0.5743579865,0.3707481325
-3.24895065,-1.842050008,-0.4136807544,0.2097109556,0.1932141036,0.4542883039
-4.12430579,-0.7132306872,-1.811069179,0.08166205883,-0.1906101257,0.5942828655
-4.5641363,0.04142506632,-2.299157816,0.05440673977,-0.2837493718,0.7571747899
-4.547155062,0.6107160691,-2.307490176,0.06562844664,0.09948130697,0.9667175412
-4.354478819,0.886982157,-2.863427776,0.04879806936,0.7721998096,1.149930596
-3.174401605,0.7586579749,-3.839302269,-0.05234318972,1.381394863,1.199913263
-0.9030465721,-0.0002379004091,-4.469880976,-0.2056744248,1.609271765,1.027703404
2.345378885,-0.6350777724,-3.775088155,-0.3903751373,1.374737263,0.6927253008
5.042320798,-0.6804840174,-2.231864149,-0.5655168295,0.9567232132,0.3670470715
5.375380202,-0.3782943837,-0.9154948425,-0.6342205405,0.7142341137,0.1794605255
3.444892616,-0.07777589812,0.3798600256,-0.6034437418,0.6987640858,0.1713437289
0.7397967687,0.1003401966,1.155102932,-0.4980785251,0.7118057609,0.2109962702
-0.9059273882,0.6531617107,1.464815363,-0.3612320125,0.5264454484,0.2471755892
-1.423463069,0.8254676578,1.725626107,-0.2803170085,0.251780808,0.2753283381
-2.087773074,0.2176344507,1.688638439,-0.2083727717,-0.004141513724,0.3395882845
-2.795003644,-0.2018979524,1.534962081,-0.1424239725,-0.2746378183,0.4088048935
-2.809352487,-0.4958405667,0.9536644142,-0.1202054769,-0.5235664248,0.4770827591
-2.473244217,-0.9869564429,0.1335685125,-0.1254677773,-0.6541470289,0.5539012551
-2.123836029,-1.405049169,-0.3587222527,-0.1486527324,-0.5944290757,0.6608428955
-1.892872579,-1.684716589,-0.4495400033,-0.1346817017,-0.3781296909,0.7756860852
-1.505005042,-1.604897203,-0.1271218206,-0.07738219202,-0.05211962759,0.8444465399
-1.075535328,-1.379099319,0.2886228806,-0.03836952895,0.2539564073,0.8362393975
-0.6356652169,-1.317455056,0.477930816,-0.02800184116,0.4392671585,0.7556510568
-0.1209725042,-1.280719024,0.7346019765,-0.04396435618,0.5546296835,0.6000999212
0.2280674357,-1.12604518,0.897382555,-0.06044372916,0.6274887323,0.4272657931
0.2356628593,-0.8308499354,0.9288952991,-0.06180805713,0.6895267963,0.3054865003
-0.09125555742,-0.3986556192,0.9933721552,-0.04269561917,0.7606393099,0.2484320104
-0.3219533417,-0.001443769068,0.990122798,-0.0263800323,0.8593088984,0.2671023011
-0.5173754491,0.2334323238,0.9312100058,-0.02218608558,0.96796453,0.3333441615
-0.483804165,0.3650274904,0.89150811,-0.008298174478,1.013771772,0.4053162932
0.006234510475,0.4974082544,0.9686422031,0.02077662013,1.023686171,0.4204686284
0.7052653343,0.5667419028,0.972566683,0.04958909005,0.9455335736,0.3927514553
1.355342596,0.3423269983,0.9178156867,0.08872583508,0.8197900057,0.3229731619
1.698652176,0.0158668467,0.9063286625,0.1296935081,0.6931502819,0.2517387271
1.561207698,-0.3390560138,0.8629787656,0.1798829138,0.6061533689,0.2048090249
1.150717849,-0.5877800147,0.857861861,0.2270329148,0.5860407352,0.1956813633
0.808755008,-0.7179279051,0.7692705543,0.2837862074,0.6275511384,0.2235106081
0.5770177977,-0.6507482198,0.7123182485,0.3415593207,0.7307702899,0.2799108326
0.4682406121,-0.4853717796,0.6640121905,0.402790457,0.8365981579,0.3164134622
0.6947919442,-0.3405880456,0.4921481419,0.4345663488,0.8940365314,0.2963412702
1.332264503,-0.4400093739,0.105510585,0.4414327741,0.8990222216,0.2248913199
1.732024868,-0.6445920352,-0.4302046037,0.4528122246,0.8891507387,0.1453911811
1.587003819,-0.8206745783,-1.020742977,0.4582684934,0.8987876177,0.07880017161
1.204108078,-0.9364718718,-1.675467699,0.4465010762,0.947009027,0.04907142743
0.6180214237,-1.016727896,-2.248196275,0.4047043622,0.9996391535,0.06632951647
0.2615963603,-1.081260282,-2.896827649,0.3416213095,1.043466926,0.1491110176
0.07603932012,-1.131773495,-3.303435689,0.2831409574,1.030080795,0.2860430479
0.2873515455,-1.254153089,-3.458479535,0.2690901756,0.9030578732,0.4200044274
1.117284366,-1.241924891,-3.437624087,0.3062159717,0.6452750564,0.4908863306
2.327010284,-1.158280978,-3.461589484,0.3609338701,0.4284722805,0.491933018
2.947778376,-1.069250111,-3.31190395,0.4326685071,0.2352471352,0.4488308132
3.278986015,-0.8636100492,-3.29108065,0.5095797777,0.1291565746,0.4067001641
2.965044569,-0.5370400075,-3.139332629,0.4919101894,0.123394303,0.3899829686
2.144943406,-0.3804594528,-3.261682998,0.3843252361,0.1536870748,0.3916567564
1.471905613,-0.2655751825,-3.335171428,0.2816705108,0.1199608073,0.3861173987
1.257698799,0.0144891286,-3.119730396,0.2028664649,-0.00433935225,0.3424135447
1.179538285,0.5141355173,-3.010185441,0.09767107666,-0.2793456018,0.2899990678
1.292473175,1.06186643,-3.584846738,-0.1048345193,-0.6146758199,0.2440952361
1.036372581,1.510456585,-4.508668095,-0.3709900379,-0.9079636335,0.1764919609
0.7543307593,1.8375299,-5.1629743,-0.6239370108,-1.212426066,0.05815187097
0.9953419939,1.8812007,-5.253025742,-0.8192511201,-1.535081029,-0.1226456091
1.207331717,1.780902589,-4.511176863,-0.9492096305,-1.767610073,-0.3450174034
0.7800146512,1.516281346,-3.0450624,-1.049386263,-1.885206461,-0.6038023829
0.112781745,1.261091364,-1.575035441,-1.093940139,-1.881729603,-0.9124962091
-0.3011930238,1.189604337,-0.06013444297,-1.05002737,-1.733407259,-1.247950435
-0.6961737539,1.498672624,1.464344823,-0.9114027023,-1.482898355,-1.570438862
-0.9261375248,2.143561596,2.988439473,-0.716717124,-1.283071995,-1.890343308
-0.4718868596,2.98290405,4.096435786,-0.488679111,-1.193075299,-2.19530344
0.2956897502,4.013825892,4.92954256,-0.2665802538,-1.318434238,-2.49156642
1.630983245,4.992120889,5.285667782,-0.07841102779,-1.533151984,-2.694077015
2.186966292,5.716471521,5.174003643,0.05212647095,-1.643740535,-2.725055933
1.583116748,5.972772095,4.768458264,0.1241346374,-1.406183362,-2.528759241
-0.1492822145,5.60139202,4.269832451,0.08125162125,-0.8055204749,-2.172850132
-1.959511435,4.172760901,3.394644777,0.02541525848,-0.0995529443,-1.929881454
-2.560900289,2.448596098,2.721927302,-0.003350076266,0.4260200262,-1.844661593
-2.36282774,1.245157882,2.199302773,-0.03428428993,0.6281995177,-1.849117041
-1.922762837,0.5667950943,1.552422334,-0.02560797706,0.6122700572,-1.889102817
-1.873347356,0.3798182323,1.110081303,0.04123005643,0.4056150317,-1.900303245
-1.983507228,0.2404021628,0.8166711879,0.1528034657,0.01418653969,-1.896236777
-1.671695195,-0.0004471592456,0.4412888923,0.2941175997,-0.4567605853,-1.867899776
-1.326452894,-0.3419119877,-0.01452244635,0.4739062786,-0.8295962214,-1.775620937
-1.51866941,-0.7941922296,-0.3783692025,0.5976347923,-1.151360154,-1.61989677
-1.574698171,-1.447997499,-0.8014601748,0.5289039612,-1.542835236,-1.382926345
-1.725755871,-2.309732986,-1.591657782,0.3054815233,-1.820494056,-1.195377707
-1.671425146,-2.805016504,-2.051976953,0.0782129541,-1.922519207,-1.053206205
-1.656451156,-2.664986686,-1.559609616,-0.1892891079,-1.863524079,-0.9338450432
-1.736273173,-2.489101127,-1.531552565,-0.4236126542,-1.667926073,-0.8116226792
-1.771888092,-1.929238462,-1.302855745,-0.5869566798,-1.362007856,-0.684050262
-1.957723383,-1.120747074,-0.6867790259,-0.7154619098,-1.041354179,-0.5592010021
-1.986736419,-0.4996528184,-0.4588096437,-0.8123856187,-0.7130437493,-0.4563423395
-1.968409612,-0.02804068409,-0.1814022768,-0.855901897,-0.4173449874,-0.3847491145
-1.842841451,0.07762626052,0.09949351667,-0.8762786984,-0.1441112012,-0.3422659039
-1.793632891,0.002456745502,0.4042942096,-0.9133933187,0.007653555833,-0.2999685109
-1.781523643,-0.2215361343,0.6260670753,-0.9244190454,-0.008117387071,-0.2147000134
-1.825169016,-0.4302940355,0.9650593761,-0.8574402928,-0.1570863724,-0.08469034731
-2.025667915,-0.4550888696,1.601243356,-0.708083868,-0.3946494162,0.07666876912
-2.264683592,-0.4253717767,2.386298047,-0.4692332149,-0.5707836747,0.2108412236
-2.479222123,-0.4134042755,3.291571648,-0.2097148001,-0.5234358907,0.2759880126
-2.542935593,-0.8008762374,3.89155911,-0.02022876777,-0.2766074538,0.3144006431
-2.451113634,-1.478329509,3.986090036,0.1110980958,-0.1015166193,0.4121465683
-1.68543029,-1.85240306,3.742610658,0.2481470257,-0.017318381,0.5584132075
-0.8294426989,-1.739140253,3.491348663,0.3679605126,0.002387137851,0.6915107965
-0.3038175271,-1.73097156,2.83334448,0.4282827079,-0.002351424657,0.7924091816
-0.08776654626,-1.922898153,1.938899732,0.4487490058,-0.01336180419,0.8765273094
-0.1432861889,-2.068812937,1.07107265,0.4496568739,-0.07704677433,0.9633892179
-0.1968658034,-2.15598444,0.2731339273,0.4425866008,-0.1350167245,1.045734525
-0.3281450359,-2.03898537,-0.3344511503,0.3939721882,-0.1324497014,1.116859317
-0.4511170433,-1.865171356,-0.9208110691,0.2863432467,-0.03922758624,1.178672552
-0.4922019179,-1.593002182,-1.480662043,0.138584137,0.1299798042,1.24607563
-0.2840022351,-1.175744154,-1.788614771,-0.007333692163,0.2444254011,1.285518646
0.5653539556,-0.6847159558,-1.623274863,-0.1002319455,0.1591083705,1.260116339
2.381923778,-0.121084294,-1.017865084,-0.1486662626,-0.1342509985,1.141415238
4.475833455,0.4466588949,-0.4908768068,-0.2034418881,-0.4471889436,0.9177339077
5.535839644,0.8249474334,-0.6744672413,-0.2988482416,-0.5458768606,0.6471700668
5.122535906,1.125568795,-1.132264785,-0.3893398046,-0.3860890567,0.3765830696
4.293490098,1.338749189,-1.155207562,-0.4520834982,-0.07738172263,0.08839827031
3.941069868,1.547653805,-0.7251958503,-0.5022777319,0.1881620586,-0.2316540331
4.250183748,1.531487683,-0.1217234687,-0.5569646955,0.2868635952,-0.5095972419
4.40320281,1.190325637,0.646527095,-0.5679920316,0.2274170518,-0.6707256436
3.758229667,0.5577361741,1.57732852,-0.4982533753,0.07062935829,-0.6916782856
2.792396092,-0.1754085894,2.338796292,-0.3694048524,-0.09863051027,-0.576620698
1.764210397,-0.7779676555,2.693758899,-0.1892071366,-0.1192594022,-0.3445087075
0.9124886464,-0.9802104758,2.756398603,0.04569084942,0.03090772964,0.04914807156
0.2901642648,0.1299912385,2.235842405,0.2670326829,0.243393749,0.5949385166
-0.2374257773,1.924880852,0.5943520866,0.4403285682,0.6021439433,1.122583151
-1.130257245,3.059532532,-1.034924355,0.5285977721,1.114760876,1.511489391
-2.6298879,4.001726289,-1.731048132,0.6358725429,1.51292181,1.558222532
-3.81261446,4.898627198,-0.5335542113,0.8523576856,1.501232982,1.213210821
-2.962731323,6.029776423,0.76045801,1.06106472,0.9584077597,0.4707015455
0.8242948147,7.633038718,0.610598288,1.089256883,0.1553404331,-0.4678101242
3.954992887,8.486236679,-0.221714998,0.7956135273,-0.1770596206,-0.9378124475
1.541966407,6.393992012,-0.6753428551,0.3628538549,0.05707006529,-0.7372542024
-2.823113009,2.647456875,0.2094075973,0.08846250921,0.4757458866,-0.2416831255
-4.649664712,0.1537444546,1.734750494,0.04543725774,0.8109728694,0.2736907005
-4.643889928,-1.279278763,2.750774626,0.1465670615,0.8999980688,0.7043627501
-4.346159027,-1.911637924,2.901134406,0.2849780321,0.7375429273,0.9977990985
-4.03467608,-1.861615709,2.451926119,0.4101873636,0.4698726237,1.146319389
-3.861918882,-1.867034227,1.875098876,0.4932359755,0.2271063924,1.156052589
-3.892517141,-1.971137576,1.122158402,0.5135505199,0.05059180781,1.014874697
-3.750506087,-1.715039831,0.15973142,0.4998450875,-0.0900220871,0.7675175667
-3.483562246,-0.9622703299,-0.6327423152,0.4193981886,-0.1412634403,0.5527101755
-3.457121691,-0.5426221916,-1.05967272,0.3157841265,0.07729016244,0.4946503639
-3.662368954,-0.3877262289,-1.354950382,0.1994825453,0.6129128337,0.5873182416
-3.639633975,-0.1830506285,-1.709410886,0.1086076126,1.320133805,0.7449558973
-2.781226171,0.08680968392,-1.803411065,0.03969884664,1.907864928,0.8249524236
-0.9810044026,0.1958522424,-1.633873414,-0.03428680077,2.118712425,0.7436605692
1.64157712,-0.0742237586,-1.339287826,-0.1083786041,1.846986294,0.5145506859
4.047151238,-0.2741659007,-0.8653311739,-0.1742521673,1.263905525,0.2547794878
4.77093313,-0.3183762138,-0.4382964325,-0.2483578175,0.6440115571,0.1054741368
3.552492575,-0.5280599978,-0.2255120522,-0.3500825167,0.214817971,0.1052600071
1.389159379,-0.9020768503,-0.09449790034,-0.4054310024,0.03114774637,0.1976360083
-0.6554770019,-0.8954033638,0.3028343613,-0.3771077991,0.03273414075,0.3128688037
-2.075919993,-0.5973322714,0.8361790215,-0.3141509593,0.0963184461,0.3837709427
-2.686713949,-0.4822188686,1.025584572,-0.2719098032,0.2218485922,0.4136689007
-3.119533704,-0.6356564491,0.9168851278,-0.2097247243,0.3653482199,0.4446614385
-3.339962754,-0.6844459067,0.5937330779,-0.1348694414,0.4748749435,0.5074986815
-3.077333562,-0.7430173382,-0.07783902648,-0.09802221507,0.5916751027,0.5986461639
-2.634837924,-1.014210945,-0.7623857632,-0.06009127945,0.7533165216,0.7367403507
-2.001378546,-1.101682308,-0.8202928855,0.01090699621,0.8456773162,0.9117840528
-0.8418985682,-1.119461126,-0.4015712144,0.08965926617,0.8197668195,1.019543052
0.7835363225,-1.056785766,0.1372711664,0.1829205155,0.6547659039,0.9777052999
2.327044771,-0.8680828107,0.455955131,0.2327876985,0.4488082528,0.8316605091
2.754218044,-0.9563397708,0.5255412929,0.2189696282,0.2780820429,0.6324115992
2.327353399,-1.227637423,0.3431754318,0.1589562744,0.2782798409,0.4736211002
1.010176575,-1.476961143,0.1655462438,0.1104124412,0.4419140518,0.4281324446
-0.5205225149,-1.407208392,0.1783078179,0.06849231571,0.698084712,0.4698288441
-1.41558576,-1.138577914,0.2412865444,0.03707633168,0.9333739281,0.5333433747
-1.338005677,-0.7787818945,0.3658922905,0.01672935486,1.069608212,0.6084918976
-0.6954056922,-0.5387497341,0.6229524504,0.04583317786,1.09321475,0.6817982793
0.3612824586,-0.2015191822,1.148704463,0.1347917616,0.9762521982,0.6941336393
1.797940233,0.200340786,1.705211388,0.2307449132,0.7390084863,0.6130099893
3.144401603,0.3668447689,1.787689472,0.2974679768,0.5006632805,0.4567442834
3.607111469,0.2072264539,1.502275325,0.3651349247,0.3897481859,0.2829461098
2.997974778,-0.05942950957,1.340221892,0.4390895367,0.4352333844,0.1554440111
2.027735661,-0.2701835531,1.053780447,0.4645930231,0.6081135273,0.06722439826
1.178577916,-0.4897568628,0.4333759272,0.4553967118,0.8167116046,0.03176168352
0.6516811167,-0.72048928,-0.1403311385,0.437171638,0.9764469862,0.01926187053
0.5101420637,-0.9140016813,-0.5691606544,0.4090887904,1.012248993,0.008981398307
0.6704816788,-1.075311603,-1.160770457,0.3741641045,0.9289562702,0.01540813968
0.698939127,-1.192211304,-1.736853896,0.3225591183,0.7829012275,0.05475474894
0.5446768226,-1.219881986,-2.269660504,0.2682684362,0.6592512131,0.1185281351
0.4652899456,-1.118842701,-2.600268423,0.2508240044,0.6098304391,0.1861537099
0.5559306225,-0.9182108235,-2.630783096,0.2717553675,0.6276054382,0.2475941628
0.8809148198,-0.718645698,-2.674989025,0.2822700739,0.6849486232,0.2839692235
1.207366788,-0.6743775172,-2.864144108,0.2894403636,0.655492723,0.3101114035
1.644838752,-0.6789204213,-3.241986071,0.2863734066,0.5394741893,0.3192252219
1.962917445,-0.6540531066,-3.560525659,0.250669986,0.4295612574,0.3234285116
2.008320182,-0.6211176362,-3.726892864,0.1778021902,0.3456062078,0.3403892219
2.185750633,-0.4978852242,-3.822756207,0.1190736294,0.257001251,0.3905759752
2.62023043,-0.05210661933,-3.732829268,0.1144760475,0.1467888057,0.4391950369
2.904313913,0.6144435652,-3.615535014,0.1321021765,0.01167226676,0.4481808245
2.855353775,1.42347096,-3.853951848,0.123959884,-0.1828518957,0.4458735287
2.400205284,2.074521963,-4.408194627,0.0543698892,-0.414301604,0.4416364133
1.785664104,2.369668107,-5.024970435,-0.1073296815,-0.7501799464,0.4237687588
1.395024034,2.530795658,-5.952383971,-0.3649942577,-1.026173592,0.3407489657
0.7727157263,2.337003855,-6.727474025,-0.6898334622,-1.285296679,0.176785782
0.7612627506,1.794816548,-7.062472873,-0.9582468271,-1.63765347,-0.02215581201
1.030146254,1.36638363,-6.308562385,-1.024295568,-1.983639836,-0.2208379954
0.7371762109,1.305793845,-4.629362805,-0.9893663526,-2.203516722,-0.3965264857
-0.03861117795,0.9912269598,-2.735445539,-0.9790654182,-2.269414186,-0.579475522
-0.6536877804,0.709900666,-0.880227422,-0.9314182401,-2.172562122,-0.8162638545
-0.943286228,1.060111111,1.052438969,-0.8065471649,-2.020995617,-1.115365267
-0.8201005778,1.874583912,2.757242945,-0.6162805557,-1.895195127,-1.493501067
-0.323174006,2.852116693,4.050312917,-0.3751246929,-1.87624681,-1.923384428
0.6021301002,3.886994579,4.977710671,-0.1139903069,-1.965665698,-2.347579241
1.242327627,4.924847096,5.496746235,0.1592871547,-2.026639462,-2.676362514
1.140136834,5.728334977,5.775045875,0.3965178132,-2.024018526,-2.843932152
0.8548036424,5.996503683,5.555297209,0.5140750408,-1.924725056,-2.820174456
0.2092271262,5.180571331,4.883749946,0.4750674367,-1.55527401,-2.547236919
-1.311787824,3.630292438,4.186797025,0.3216804862,-0.9313247204,-2.134927511
-2.841362075,1.858020315,3.561770399,0.2028781921,-0.3026610613,-1.862786412
-3.203150729,0.4611369176,3.2084313,0.09087234735,0.07993963361,-1.764968038
-2.689830912,-0.4244856415,2.429382864,-0.03271190822,0.1961197704,-1.77694118
-2.267950777,-0.6819891612,1.631333374,-0.1653613597,0.1198270544,-1.816543818
-2.188402316,-0.7298270172,0.8815469802,-0.2576407194,-0.1464533657,-1.83745122
-2.110913419,-0.7383020001,0.3371545641,-0.2855483592,-0.5998377204,-1.806859851
-1.969562874,-0.8745739263,-0.05403583383,-0.2135700434,-1.063850164,-1.747842431
-2.094341054,-0.8329442773,-0.5838473514,-0.05984605476,-1.486863256,-1.715420246
-1.629056661,-0.958292074,-1.154079727,0.1713181883,-1.882037759,-1.62212038
-1.346289813,-1.038911087,-1.581221728,0.3528116643,-2.11531353,-1.487613559
-1.504441855,-1.617009081,-1.928669723,0.3443404138,-2.152587175,-1.311695576
-1.711151592,-2.481097269,-2.661664848,0.05577668175,-1.917518854,-1.069846153
-2.337610004,-3.11528423,-3.101144061,-0.3443448842,-1.647180557,-0.8554316163
-1.978189832,-2.823417837,-2.799144689,-0.6883311272,-1.31614542,-0.6810264587
-2.256954751,-1.932551532,-2.05441441,-0.8483042717,-0.895948112,-0.5695611835
-2.698586758,-0.6987123325,-0.6340124813,-0.8885697126,-0.5298559666,-0.4688068032
-2.93771291,0.1000222167,0.2248591412,-0.8631269336,-0.2941678166,-0.4454487264
-2.526993343,0.4369809659,0.7136492049,-0.7937176228,-0.1754539907,-0.4778618813
-2.115094211,0.4860714523,1.001006303,-0.7325344086,-0.1423152089,-0.4889984429
-2.054322055,0.4160556668,1.365011173,-0.6938008666,-0.1228723004,-0.4298244417
-2.497521165,0.01100946979,1.756167084,-0.6251954436,-0.11405164,-0.3230703175
-2.901325253,-0.3616857787,2.428507834,-0.5382031202,-0.1569496691,-0.1379128247
-3.262296161,-0.7345809337,3.01147285,-0.4318905175,-0.1754296124,0.1010539383
-3.538924068,-1.040116955,3.597591069,-0.3107992411,-0.06699607521,0.3097290993
-3.47399713,-1.387483117,4.044399017,-0.1798763871,0.102226235,0.4822202027
-2.820483537,-1.754932866,4.094324201,0.004202956334,0.1824840903,0.6597819328
-1.829729456,-1.983017983,3.648516662,0.1739547104,0.194936499,0.8323031068
-1.039321713,-2.211325804,2.971077419,0.3085983396,0.172189191,0.9787476659
-0.5984823182,-2.304977901,2.270887415,0.3977103829,0.1256528497,1.088954329
-0.350604705,-2.289398054,1.557386679,0.4452105761,0.0394474715,1.166886687
-0.2147685398,-2.172176281,0.7753653641,0.4622105956,-0.05342441425,1.208976388
-0.05817395655,-2.002466196,-0.06667845778,0.448915273,-0.116483584,1.224262118
0.05165010774,-1.664868564,-0.8909355708,0.3663199842,-0.1003773138,1.246006846
0.05464899729,-1.267324705,-1.843428895,0.1963002384,-0.007339612581,1.284920454
0.2664671629,-0.8352882101,-2.660426246,0.0170071777,0.10260313,1.309887886
1.12976157,-0.09486614913,-2.71251533,-0.1205837205,0.04071205109,1.286950827
2.947123127,0.758354608,-2.155546341,-0.205381155,-0.2477386594,1.177784681
5.027262345,1.32970079,-1.427949275,-0.2683202922,-0.6206806302,0.9483826756
6.202244867,1.653100385,-1.070503326,-0.3474332094,-0.8188853264,0.615557313
5.935328791,1.537688291,-1.021718836,-0.4621961713,-0.6686906815,0.203929916
4.882803313,1.119003445,-0.8800780767,-0.5819960833,-0.2546897531,-0.2201995105
4.176728635,0.6973679321,-0.4284335024,-0.6868644953,0.2273721546,-0.6053378582
3.96002299,0.5316349336,0.1250584583,-0.7457949519,0.5526871681,-0.8485068679
3.676389588,0.2003285111,0.7285767249,-0.7268337011,0.5987049937,-0.9185407162
3.323671544,-0.4307476245,1.33708184,-0.6422338486,0.4567433596,-0.810403049
2.479979078,-1.077078028,1.829536271,-0.5217950344,0.26448071,-0.54885602
1.523988852,-1.408746854,2.014084737,-0.3849687576,0.2375375181,-0.08038655668
0.3897518895,-0.7855436437,1.642035678,-0.185577631,0.4917918742,0.6407769918
-1.096098955,1.193404898,0.6637757514,0.1070920452,1.068820119,1.394016743
-2.873487398,3.162497816,-0.3865630304,0.4372471571,1.918254852,1.946122527
-5.501513011,5.082630012,-0.5346504821,0.7581506371,2.546545267,2.101723671
-7.255806995,6.38833384,0.8807821333,1.138070941,2.534429789,1.796196938
-5.325913283,7.29940999,2.160504548,1.369647741,1.648519635,0.7983227968
2.396354162,8.723215881,1.084163894,1.296324611,0.1184714288,-0.707264781
9.032633128,9.290737536,-0.5733861632,0.9475980401,-0.8784611225,-1.569937348
4.948685068,7.359329913,-1.226736382,0.4684220254,-0.6310476661,-1.096980333
-3.184620216,3.287867825,-0.7803758857,0.197353512,0.07805571705,-0.1983930171
-6.449893932,0.00132686469,1.165398116,0.1745250672,0.7455362082,0.5880504847
-6.773734257,-1.433321323,2.952346707,0.263299942,1.123714924,1.1474576
-6.760407158,-1.514061916,3.305376886,0.4231441319,1.172065854,1.410875678
-6.071159988,-1.254331368,2.994724252,0.6517099738,0.9681878686,1.400283694
-5.101516499,-1.426550806,2.693496157,0.8540537953,0.6198747158,1.232242227
-4.546220996,-1.837776569,1.933987118,0.9026690125,0.2219124287,0.9957652688
-4.304179542,-2.163929846,0.5486795919,0.73387146,-0.1429353654,0.7350693345
-3.847875743,-2.10615278,-1.143351996,0.4198578596,-0.1693672389,0.5099568367
-3.353020681,-1.691259143,-2.534607617,0.0222980082,0.6284064054,0.4164828062
-3.301777985,-0.9585101006,-3.737607442,-0.3443604112,1.895061731,0.4394634962
-2.387375321,-0.2661030058,-3.871773044,-0.5408828259,2.828065634,0.4999348819
-0.1889803108,0.01295242055,-2.945968404,-0.5342156291,3.067028522,0.5254641771
2.007389623,0.0488853192,-1.532939928,-0.3865631819,2.571172953,0.4830575883
3.886446297,-0.08074936097,-0.4989575296,-0.2075574994,1.626016736,0.3617718816
4.610200132,-0.2830290061,0.04618073642,-0.1283173263,0.7897372842,0.2869255841
2.945554271,-0.7610153517,0.507586534,-0.1528274417,0.2955903709,0.2901741266
0.7868832218,-1.183953764,0.9106322049,-0.1780123264,0.09473860264,0.3348605037
-0.7408417477,-1.202923837,1.449672739,-0.1570239514,0.09225679934,0.3827758431
-1.718183536,-1.041675291,1.756566312,-0.09948737174,0.2288218886,0.4349883199
-2.439227527,-0.9605787236,1.715704725,-0.03122975491,0.3405276537,0.5116236806
-2.595993814,-0.8993699294,1.369187874,0.05085994303,0.341324091,0.6138570905
-2.297873768,-0.84532562,0.7253714991,0.09436320513,0.2794362307,0.7370687723
-1.870749448,-0.9242278918,-0.1549871481,0.08413337171,0.1890382916,0.8642675281
-1.147850185,-1.161726734,-0.880868058,0.0673693046,0.15358603,0.9688059092
-0.5551052411,-1.300241471,-1.139001985,0.07622437179,0.178866148,1.015991688
0.1646761099,-1.29865391,-0.9857979205,0.0720583871,0.2664655149,0.9666081071
0.957386065,-1.251166767,-0.6844643192,0.02847410738,0.4015825391,0.8402756453
1.543532926,-1.352701142,-0.4030658369,-0.01703585498,0.5161988139,0.672583878
2.107798794,-1.374063663,-0.00001344400346,-0.02785287052,0.5578104258,0.5093948245
2.454578095,-1.21964467,0.4625263261,-0.01079452597,0.5690575242,0.3814576268
2.175632559,-0.9662988548,0.7360694187,0.02323333174,0.549478054,0.3081797361
1.639459982,-0.7515466816,0.7759773585,0.0623935163,0.5284776688,0.2849620283
1.13735451,-0.7084808623,0.6830529911,0.07782614976,0.5156440735,0.3022399843
0.6820996359,-0.8133511036,0.3760474816,0.08056307584,0.530883491,0.3179880381
0.4058101671,-0.9179536338,0.1560822499,0.1037830114,0.5565713644,0.3485202789
0.2267407172,-0.8951292231,0.2054880858,0.1392411441,0.5843701959,0.3737241626
0.2134288157,-0.8479922089,0.3183326669,0.1634101421,0.6154434681,0.388777703
0.4718599716,-0.8310515954,0.3116138801,0.1796170771,0.6556398869,0.3832330108
0.8302583992,-0.687336952,0.3790501705,0.2104629129,0.7012327313,0.3552948236
1.377907479,-0.4654173714,0.5099792744,0.2799368203,0.6841893196,0.3151095808
2.1399814,-0.227804547,0.6164926067,0.3781143725,0.644202888,0.2529918253
2.496676531,-0.1576519834,0.5559679954,0.4702485502,0.6278483868,0.2006364763
2.059582168,-0.3021627457,0.0842708131,0.5091923475,0.6370295286,0.1895365268
1.275499829,-0.6999129405,-0.7659279659,0.4896756709,0.6973474622,0.2412756234
0.1978185741,-1.069336035,-1.728217293,0.4426148534,0.7565537095,0.327844888
-0.5249882987,-1.166254441,-2.418071488,0.3899971843,0.8039765954,0.4270881116
-0.7005582526,-1.128105035,-2.868157727,0.3343616426,0.7606526017,0.5232309699
-0.07025134783,-1.123385606,-3.448177337,0.2652235925,0.6547714472,0.5947110057
0.9548140957,-1.138366317,-3.919739203,0.2127993107,0.4791107178,0.6122530699
2.215711471,-1.11435182,-4.35317855,0.1964674741,0.2813071012,0.5872779489
3.165730223,-0.9304290845,-4.484894421,0.2184432894,0.1209977791,0.5191706419
3.585524491,-0.468332382,-4.518708428,0.2308751941,0.05654102191,0.4243522286
3.554567628,0.2153548153,-4.585966147,0.2111323774,0.06951781362,0.331182152
3.514211067,0.9135942696,-4.592759168,0.1564329118,0.1013670936,0.2611005306
3.237942641,1.47406776,-4.468178848,0.08936430514,0.07575377822,0.2169385254
2.878928128,1.767439881,-4.427748346,0.03222964704,-0.04473321885,0.1877617389
2.446986325,1.868459876,-4.146752599,-0.02241372503,-0.2703174353,0.1765231192
1.871627985,1.778666793,-4.084971266,-0.1277534664,-0.5708625913,0.2106334269
0.9818635767,1.668811164,-4.325189596,-0.32111606,-0.9635364413,0.2328619808
0.727553227,1.484606105,-4.661087438,-0.547480762,-1.38952291,0.2020444125
0.641928369,1.201620938,-4.71276005,-0.7533064485,-1.821713567,0.1147660911
0.5534522132,0.6889134075,-4.172418955,-0.8502526879,-2.147942781,-0.01390906703
0.07561199808,0.4379916043,-2.613602828,-0.8930207491,-2.3370471,-0.2115186751
-0.2988964008,0.1770756458,-0.833169026,-0.8838120699,-2.361511707,-0.5173624754
-0.3070113547,0.2452484338,0.7763897387,-0.8030606508,-2.212190866,-0.8948556781
-0.46256432,0.9656137951,2.284498592,-0.6845374703,-1.962232351,-1.366508961
-0.2210229423,2.175543712,3.177888862,-0.5295988917,-1.805365086,-1.918194771
0.7970236536,3.804758194,3.796421158,-0.3810088336,-1.770691276,-2.506678104
1.587656145,5.428613195,4.095879321,-0.2559019625,-1.700304031,-3.03650856
1.464267081,6.984756011,4.212999972,-0.1078970507,-1.472913742,-3.379820585
0.7932967421,8.467017014,4.40888261,0.04940314591,-1.130054951,-3.425103664
0.1374058987,9.196371153,4.503396292,0.1186357439,-0.6920583248,-3.173598766
-0.6824106015,8.230185696,4.069716706,0.0682028234,-0.08142172545,-2.690052509
-2.247093867,5.67791938,3.608843408,0.01770370081,0.534047842,-2.296995401
-3.105001613,3.001403584,3.323457025,-0.01922001876,0.9431354403,-2.088407993
-3.00506006,1.325727795,2.880494646,-0.05412580445,1.08330071,-1.996054649
-2.755348217,0.2929237927,2.294703175,-0.07095266879,1.000775933,-1.926489711
-2.811734414,-0.1707224774,1.818509558,-0.06235385314,0.656712234,-1.789301157
-3.130103029,-0.4007593135,1.436372528,0.04291338474,0.05198153108,-1.581856132
-3.090567137,-0.4918126263,1.339894852,0.1872532517,-0.7655918598,-1.325781465
-2.91783595,-0.7560112598,0.9843377848,0.2735673785,-1.633025765,-1.144509077
-2.269184703,-1.360704415,0.1009592053,0.3598825634,-2.304442167,-1.087967515
-1.992626354,-1.623600149,-0.1999628926,0.4600220323,-2.618600368,-1.130893588
-2.049313871,-1.81582368,-0.1558881886,0.4068930447,-2.730241299,-1.25243175
-1.362878545,-2.308565696,-1.171385374,0.176937893,-2.700092554,-1.356839299
-1.09904816,-2.544503865,-2.270558037,-0.0960534364,-2.447126627,-1.279757857
-2.05853938,-2.235446684,-2.464092943,-0.3773364425,-1.976717234,-0.9045106769
-3.656998951,-1.895015875,-2.385647767,-0.6382532716,-1.360762119,-0.5083428025
-3.976359792,-1.788425386,-1.985230983,-0.8474242687,-0.8170303702,-0.2649793029
-3.552171088,-1.474124458,-1.275981767,-0.9930304885,-0.4163047671,-0.212700665
-2.983800707,-1.166254441,-0.7365279761,-1.025362849,-0.1796454191,-0.2573557496
-2.35820388,-0.8154062825,0.1464198108,-0.8788978457,0.005035756156,-0.3255603611
-2.17589384,-0.2978548193,1.621018901,-0.6931123137,0.08565044403,-0.3388390839
-2.307810494,-0.406700394,2.771388959,-0.4476084709,0.1026366204,-0.2611094117
-2.72349762,-0.6584849515,3.859431449,-0.207752645,0.02553636022,-0.09898974001
-3.040242725,-0.9850444718,4.432696031,-0.04498290643,-0.1313041151,0.1113443226
-3.152693923,-1.316051035,4.44575805,-0.004668299574,-0.2954875231,0.3357788324
-2.97204451,-1.682324141,4.07070747,-0.01760194078,-0.3357888758,0.5602878332
-2.493911158,-1.821321108,3.659989073,0.06923245639,-0.2880278528,0.8275056481
-1.600308998,-1.576490608,3.185286279,0.152825892,-0.1697975993,1.024909496
-0.5123085941,-1.727059355,2.070398745,0.1688003242,-0.03056941368,1.124547362
0.1763186899,-2.000882726,0.873357244,0.1385582685,0.01407395303,1.149763227
0.492818004,-2.087305456,-0.06062602588,0.09941565245,-0.09707014263,1.134922147
0.5160732074,-2.050212866,-0.7468684606,0.04792184383,-0.290297389,1.096971869
0.3513099307,-2.018479757,-1.43550802,-0.01479864866,-0.3382442892,1.074633241
-0.1708724072,-1.917906921,-1.969890206,-0.070691742,-0.1043361649,1.099443793
-0.8414771279,-1.577148195,-2.091481281,-0.1637036055,0.2920075655,1.162835836
-0.8240121983,-1.136699261,-1.832974137,-0.2453617007,0.5772275925,1.202031136
0.6164531515,-0.4447819951,-0.7398170808,-0.2525862753,0.4875797927,1.169634223
3.32294966,0.508186838,0.8750240082,-0.195657745,0.03666161001,1.026609659
6.071860245,1.437778887,1.732033928,-0.2082348913,-0.4460020959,0.8104564548
7.052502098,1.796542641,0.9383031789,-0.3254129291,-0.6010273695,0.5543336272
6.152021577,1.405608556,-0.3880804492,-0.4679093659,-0.4309568107,0.2278015614
5.357644639,0.7914180887,-1.007731812,-0.5612243414,-0.1396506727,-0.2056816965
5.3524535,0.4078974948,-0.7740946135,-0.6009047627,0.0451420173,-0.6171380281
5.034704478,-0.08228957615,0.1848795975,-0.5880398154,0.07295980304,-0.8871964216
4.077871371,-0.6994716264,1.338010061,-0.5320472121,-0.01394963451,-0.9734585881
2.885560697,-1.203537001,2.117118995,-0.4110696614,-0.1119491681,-0.8514063954
1.770557428,-1.441170283,2.690636968,-0.1841784418,-0.007491195574,-0.4676502049
0.8155582582,-0.4904541975,3.098083504,0.1005166695,0.3643460274,0.1908363551
0.1219610768,1.91631293,2.29796773,0.3417601883,0.9500313401,0.8773571849
-0.2514823597,3.652585519,0.2019452986,0.5095869899,1.715722561,1.335307121
-2.570361068,4.977915254,-1.244239013,0.6955614686,2.144698381,1.438416839
-5.61617984,5.815301313,-0.3271376124,1.012636662,1.911704183,1.038389206
-4.397274297,7.590869555,0.8722317471,1.274005413,0.9488785267,0.2283382565
0.1409939863,10.14670847,-0.01674859797,1.210678101,-0.1666991413,-0.7011483908
2.453979253,10.60906762,-1.895587245,0.8025327921,-0.4721494019,-1.183449388
-0.468958405,6.699660136,-2.348879879,0.375076592,-0.2232456058,-0.9132372737
-4.519110579,2.262910445,-1.021294181,0.1899883151,-0.04073534533,-0.3268229663
-5.776157636,0.1480214007,0.558595129,0.2228799462,0.003949034028,0.3070461154
-6.011799452,-1.120793835,1.526543212,0.3556796014,-0.04967499897,0.9062172174
-6.374713896,-1.922757284,1.798422756,0.4658039808,-0.1302140504,1.369464993
-6.280767784,-2.721196649,1.318109428,0.493753016,-0.2082835883,1.622646451
-5.750812766,-3.202982387,0.5581196205,0.4070370495,-0.189475283,1.587149978
-5.110704014,-3.426819784,-0.3835530349,0.2755862176,-0.1574229151,1.334544063
-4.408924403,-2.857820458,-1.045266885,0.1596356481,-0.09875027835,0.9578770399
-3.448914127,-1.622804031,-1.310976216,0.02854659781,0.1912181675,0.6414626241
-3.069961279,-0.6294260303,-1.460873347,-0.1270888001,0.8448426127,0.4820175171
-2.705008023,0.1968354083,-1.499957111,-0.2451691777,1.724280596,0.4748302102
-1.490432911,1.255433192,-0.9969587815,-0.2884575427,2.342810154,0.4964819849
0.9236977304,1.852822162,-0.2754474649,-0.2676877379,2.360932589,0.4689600468
3.362379168,1.555257266,0.2354106381,-0.2346400321,1.794383049,0.4008289278
4.384331229,0.8199649688,0.1250140346,-0.2393732071,0.9780299664,0.3818759024
3.402065867,0.1361754801,-0.3198486245,-0.273604691,0.3247208595,0.4457840323
1.146823472,-0.3269143251,-0.1699254818,-0.3036259115,-0.006187473424,0.5578441024
-1.004986021,-0.5373135638,0.3423042019,-0.2956079245,-0.03561380506,0.689632237
-2.762323025,-0.6648989102,0.8520458682,-0.2571680844,0.1858019829,0.8212783933
-3.966191449,-0.7536714186,1.425785667,-0.2142333984,0.4495201707,0.9059829116
-3.979767555,-0.9173954154,1.630287664,-0.227002874,0.6740871072,0.9214857221
-3.420740172,-1.432445125,1.40815824,-0.2342780977,0.821901083,0.8910596371
-2.653224352,-1.637664915,1.177188507,-0.1401468068,0.8591453433,0.8763228059
-1.839668228,-1.489522518,1.175057925,-0.000670674257,0.8437322974,0.9103760719
-1.072372042,-1.542529886,0.9745897133,0.1054422408,0.8403762579,0.9869341254
-0.2337643322,-1.72146548,0.7371668586,0.170525372,0.8311086893,1.032547116
0.9867432385,-1.676979858,0.7774544453,0.1748589426,0.7758348584,0.9894632697
2.117238822,-1.313189215,0.6891542305,0.1828170121,0.7142117023,0.8914530873
2.291525714,-0.9669821609,0.7084001983,0.2277713865,0.6721394062,0.8090933561
1.619592083,-0.7763619739,0.685842914,0.2817885578,0.6864535809,0.7701097131
0.6692226186,-0.9110136054,0.4642313764,0.311801523,0.7533071041,0.7923546433
-0.2081341799,-1.111475388,0.2091448547,0.3076656163,0.7931892872,0.8619206548
-0.4876876554,-1.26154203,0.01809562866,0.2678890228,0.8120906353,0.9204707146
-0.186379499,-1.278638127,-0.2089431947,0.248700425,0.7522878051,0.9457420111
0.6211258195,-0.9812088392,-0.2687298471,0.2882228792,0.6352669597,0.9008074999
1.76012985,-0.5392910013,-0.0937999812,0.3390040398,0.5308545232,0.7820137143
2.62252234,-0.0947398924,-0.2022135942,0.3886312842,0.4865914881,0.6049898267
2.947717586,0.2262041261,-0.3415022379,0.4374579489,0.5230837464,0.397870481
2.718189869,0.2781891649,-0.2974284106,0.4863505363,0.5810497403,0.2188496143
2.163861457,0.1165939968,-0.2099780907,0.5093373656,0.624989748,0.08145447075
1.798314327,-0.06205401285,-0.2380643675,0.5059048533,0.6268727183,-0.0130657088
1.723551055,-0.138135382,-0.3348307973,0.4824280739,0.5950365067,-0.07602230459
1.788674976,-0.1400040985,-0.5387576251,0.4327151179,0.5742401481,-0.121466279
1.676475415,-0.2985790419,-0.721583505,0.3398352563,0.5904177427,-0.1665951312
1.355926533,-0.6035211892,-1.069236959,0.2433054894,0.6425488591,-0.2154649347
0.9507932426,-0.9768307702,-1.456881063,0.1692601591,0.6931477189,-0.2466096282
0.5040057529,-1.325773387,-1.903496995,0.09521463513,0.7297170758,-0.2365900129
-0.02760232921,-1.549202203,-2.315985033,0.00481016608,0.8028339148,-0.1714038253
-0.5537672339,-1.582748499,-2.499086807,-0.09078427404,0.9008299708,-0.09202836454
-0.6368979736,-1.409713653,-2.461037062,-0.1348470747,0.9883129597,-0.02581791952
-0.1923082497,-0.9383733215,-2.243245083,-0.1066523418,0.9993675947,0.01990209892
0.667109572,-0.3650368427,-2.032474965,-0.04055375233,0.9254339933,0.04447109252
1.746918486,0.2391302432,-1.944741444,0.0391481109,0.7897180915,0.05734134465
2.601224116,0.7589958285,-1.984130621,0.09095804393,0.6028659344,0.05244592205
3.188681475,0.996757706,-2.22150233,0.0944788903,0.445903331,0.03042338789
3.228807733,0.9160100985,-2.490158235,0.08315832913,0.2879791856,0.008416355588
2.985238631,0.9660802436,-2.995925445,0.08618231118,0.1985856593,0.02438052557
2.259203407,1.156906182,-3.327372152,0.10211467,0.1117522195,0.06378306448
1.590396968,1.325237381,-3.757834822,0.08563629538,-0.009489857592,0.1167349666
1.114728909,1.274131463,-3.995738154,0.01494562067,-0.2193035483,0.1623128355
0.9489409658,1.107567859,-4.336925042,-0.1663767248,-0.4689053297,0.1730768681
0.759873269,0.916181948,-4.897207686,-0.4173748493,-0.7573467493,0.164488703
0.5312192655,0.8198860583,-5.353653523,-0.701638937,-1.067193627,0.1356312931
0.3080195819,0.6731885997,-5.563704387,-0.8951833844,-1.465337038,0.08290842175
0.3524824816,0.6503402235,-5.155086761,-0.9595760703,-1.897051215,0.02779490128
0.1909042646,0.5987275252,-4.229590749,-0.9297630787,-2.141238451,-0.02628830634
-0.6702583914,0.4097065901,-2.805152697,-0.8813673258,-2.180184126,-0.1812099069
-1.068209662,0.4644809673,-1.362246092,-0.7704970241,-2.098521948,-0.4335792959
-1.049527173,1.078507184,0.399532402,-0.600910604,-1.991081238,-0.8047947288
-0.6091968967,2.012086257,1.986358526,-0.3918191493,-1.972877741,-1.338693261
0.6563654751,3.146195501,3.044342562,-0.2043539733,-2.013745785,-1.951746225
1.346094291,4.319906103,3.449451303,-0.0542126745,-2.022069693,-2.54535985
1.205819705,5.503218062,3.650454936,0.1059900522,-1.921180129,-3.021042585
0.5695733269,6.667675098,4.086265105,0.3025614321,-1.708581567,-3.302406788
0.008040683115,7.579422278,4.645790501,0.5070520043,-1.435546279,-3.303365946
-0.4382384187,7.763496989,5.040132348,0.5764595866,-1.054813266,-3.033360243
-1.32904028,6.291307883,4.686184763,0.4673586488,-0.4524174929,-2.514086723
-2.857814905,3.690665951,4.049980324,0.3327611387,0.1908144802,-2.070285797
-3.606820377,1.521312326,3.783449741,0.2105368376,0.6710150838,-1.804515839
-3.404650915,0.03732932144,3.252469472,0.0994207114,0.8473413587,-1.619132042
-3.144171594,-0.7669009026,2.645879542,0.004936133511,0.8562140465,-1.418564916
-3.496951305,-1.075050321,2.12726951,-0.04966985434,0.6858718991,-1.257215619
-3.169113727,-0.9974754988,1.875959292,-0.1039035916,0.141715318,-1.105628133
-2.091829948,-1.016731988,1.16709966,-0.1445572823,-0.7700474262,-1.048968792
-0.5337202155,-1.06905488,0.3477282728,-0.170258075,-1.772143245,-1.153533936
0.4630699314,-1.144711887,-0.5377686141,-0.1024712995,-2.569561243,-1.294720292
0.04300882838,-1.16135264,-1.070753209,-0.05112826079,-3.230271339,-1.331920385
-0.5400868279,-1.716105999,-2.135339127,-0.0780448243,-3.659862041,-1.247561216
-0.9544804067,-2.264050847,-3.703334001,-0.1781021953,-3.650408983,-1.053687334
-2.032871855,-2.57811855,-4.704521507,-0.3881741762,-3.130805969,-0.8059617877
-3.194979113,-2.918050178,-5.236885923,-0.6213265657,-2.307467461,-0.557495594
-4.019902581,-2.88124751,-4.711795881,-0.8088780642,-1.450557113,-0.4309301972
-4.150171468,-2.35082546,-3.143204795,-0.8265353441,-0.7270190716,-0.4047711492
-3.819254921,-1.312225923,-0.6767977301,-0.6901718974,-0.3150117993,-0.4015324712
-3.07792802,-0.7667723078,1.345282682,-0.5005254149,-0.1766926497,-0.3970246911
-2.49157307,-0.8496686176,2.352744153,-0.3215367496,-0.2113542259,-0.3535270095
-2.401530396,-0.9835773219,2.821966762,-0.145059064,-0.3448780775,-0.2662333846
-2.570989137,-0.8881395103,3.188813576,0.02529535815,-0.4580083489,-0.1893231571
-3.018918782,-0.6600935558,3.454585158,0.1485875696,-0.4678358734,-0.1204448268
-3.51182388,-0.7208306408,3.533567802,0.2405494452,-0.3397258222,-0.03253015131
-3.801287303,-0.5617816501,3.878024506,0.2672047019,-0.09899155051,0.0594769977
-3.763517837,-0.8529735044,3.931748497,0.2132821083,0.1138184592,0.1798257828
-3.012520021,-1.339752228,3.881640066,0.09858411551,0.1884443313,0.3445752561
-1.887457422,-1.790104717,3.655589377,0.02240386233,0.2014376223,0.5392475128
-1.023088664,-1.869186437,3.268294525,0.04790762812,0.2374949753,0.709769547
-0.4345630911,-1.650063209,2.56294027,0.02668196894,0.3259734511,0.8391554952
-0.0763347594,-1.775159661,1.244700201,-0.03732247278,0.4939854443,0.9228186011
-0.0315390476,-1.823839813,0.1805032821,-0.104948394,0.6194531322,0.977974236
0.1423714121,-1.828269905,-0.5443664049,-0.1646951884,0.6539475918,1.008990049
0.3803247205,-1.733514815,-1.102536879,-0.2130083889,0.5847451091,1.031580806
0.6298071386,-1.530565892,-1.621057772,-0.2461372018,0.4609763622,1.05059433
0.8354442774,-1.179960895,-2.007012315,-0.2367074937,0.3192956746,1.073577046
0.9958253935,-0.6050257485,-2.23392079,-0.1828276068,0.2841492593,1.085392952
1.031830481,0.02445171969,-2.070056215,-0.1617867649,0.2803542614,1.062684178
1.768768791,0.5437988342,-1.560385861,-0.1940837651,0.136323005,0.9951149821
3.337448725,0.9857891527,-0.9989096233,-0.2842360139,-0.1799220443,0.8551938534
5.010283153,1.289041447,-0.759821758,-0.3925954103,-0.5418308973,0.6455663443
5.80520019,1.58395203,-0.6811737532,-0.49573192,-0.7595579028,0.3808664978
5.652136704,1.456305308,-0.6312792569,-0.5912508965,-0.7572142482,0.06251614541
5.322207999,0.9131944566,-0.6190402454,-0.6688234806,-0.509292841,-0.2995959818
4.892089905,0.3913520182,-0.3608028584,-0.7243762016,-0.1869371831,-0.6422901154
4.535534475,0.1234223815,0.07962474086,-0.6929229498,0.04532960802,-0.8480528593
3.938728273,0.02932955486,0.9733721542,-0.5835123062,0.03575666621,-0.8678024411
3.244792653,-0.2538110949,1.874068656,-0.4423066676,-0.21928069,-0.7071768045
2.415878654,-0.8338222292,2.446305357,-0.284624964,-0.482096374,-0.4133365452
1.223311084,-1.296959381,2.852005049,-0.1375798434,-0.4791298807,-0.0001777387079
-0.2648193957,-1.226561318,2.843273169,0.01968210749,-0.1376581639,0.5249881148
-1.21750532,0.01586275504,2.223401149,0.220738247,0.2810922265,1.077274203
-0.993434699,1.793133709,0.8179866544,0.4057838917,0.8355811834,1.473468661
-0.8892197068,2.942621724,-0.8121314987,0.5341855288,1.523028493,1.695165992
-1.807923867,4.216684798,-1.921534756,0.6625007987,2.049400806,1.707311988
-2.74722161,6.126507781,-1.939937259,0.8770629168,2.096888542,1.353796244
-1.972166627,7.633655973,-0.2958677372,1.063935518,1.344931483,0.550504446
2.034922943,8.300328322,0.139276661,1.077700853,0.1193429828,-0.4919771552
4.928342537,8.155541081,-0.3768228498,0.8280658126,-0.6815602779,-1.189950705
2.190605379,5.736244727,-0.6460580161,0.5411599874,-0.6146526337,-1.182394981
-2.826390131,2.86127732,0.4748167756,0.316778332,-0.1473935097,-0.6753919125
-5.30143,0.3867389714,1.75806678,0.2167244405,0.3319912255,-0.01335798856
-5.719091933,-1.384020994,2.708212372,0.2089715451,0.7079380155,0.5818021894
-5.722744025,-2.293399107,3.013977526,0.2309468985,0.914111197,1.010357022
-5.526725779,-2.319773319,2.632349322,0.2738510966,0.9529348612,1.244153142
-5.158614935,-2.299306869,1.997259275,0.3456861377,0.861921072,1.264611006
-4.510154242,-2.42851894,1.316724112,0.3700064719,0.6982752681,1.131054401
-4.291706721,-2.559047354,0.1994263015,0.2822845876,0.4500665069,0.9198508263
-4.292480044,-2.312194993,-1.168710602,0.1250594407,0.1628705561,0.6361375451
-3.870318169,-1.853790715,-1.909153121,-0.04377351701,0.07210417092,0.3158737719
-3.305418971,-1.305401046,-2.198344742,-0.2202118337,0.5036301613,0.09802639484
-3.312406638,-0.7145254032,-2.627119897,-0.4293477237,1.489722013,0.06454326957
-3.12156784,-0.06682897217,-3.168099582,-0.5799026489,2.523272753,0.2074669302
-1.964276458,0.6521031415,-3.254475258,-0.6039389968,3.150213718,0.4070796371
-0.1611176137,0.9876590382,-2.210998764,-0.5416996479,3.021607399,0.4856114089
2.552798523,0.7049217085,-1.051188969,-0.39836061,2.166754246,0.3843375146
4.792885434,0.4418476952,0.02878653402,-0.336776793,0.9354691505,0.212645039
4.963796128,-0.08371054887,0.4516799379,-0.4267919064,-0.09372354299,0.132235691
2.673264393,-0.804897748,0.6855611745,-0.4873928726,-0.631175518,0.1875327677
-0.3535173776,-0.5402835195,1.06120066,-0.4511730671,-0.6061319709,0.3532021642
-3.273363207,-0.2122404827,1.824092911,-0.3577868044,-0.2145656496,0.547604382
-4.735910917,-0.0507464369,2.452621116,-0.2693895698,0.1881272048,0.6885330081
-4.139911355,-0.1566951211,2.487552729,-0.2232669443,0.492616415,0.7713745236
-3.027327714,-0.6120885265,2.097708192,-0.1461734921,0.7131738067,0.7903556824
-2.026676654,-0.8143354384,1.597109617,-0.04239046574,0.8281671405,0.7656527758
-0.8085656229,-0.9575748656,0.9058288963,0.06451573968,0.821251452,0.7500911355
0.2441290744,-1.124909454,0.4544458955,0.1634402275,0.6550146341,0.7447193861
1.406598298,-1.076480646,0.2858183446,0.2286261469,0.4704692364,0.6949057579
1.939888743,-0.9701923551,-0.01846270841,0.2522652745,0.3868077397,0.5737868547
1.872521719,-0.9345990637,-0.1817027211,0.2713234127,0.3948451579,0.4373962581
1.43641812,-0.905047975,-0.1762064617,0.2697372139,0.4524746239,0.335488677
0.9526011688,-0.9538041149,-0.167455,0.2363518178,0.5207945704,0.2940453589
0.5375860971,-1.023438792,-0.2924339633,0.1842151135,0.5674693584,0.3258557022
0.2840541114,-1.083074053,-0.3250684049,0.139148578,0.6142550111,0.4117141366
0.1340951667,-1.101737253,-0.1852151131,0.1144739762,0.6613787413,0.4885516465
0.2755576473,-0.967024831,0.05959726735,0.1193478256,0.7466467619,0.5022040606
0.6471942536,-0.8670037833,0.4306856652,0.141883865,0.8895901442,0.4395622313
1.031303388,-0.8076011618,0.7658961094,0.1803753227,1.051318765,0.3271739185
1.394095228,-0.6769190184,1.002937271,0.2133820802,1.17363739,0.174402982
1.942458594,-0.4677899457,1.063446977,0.2430121452,1.224518418,-0.01422099117
2.466680036,-0.2893663924,0.9746557643,0.2662784755,1.261908054,-0.1840993017
2.268842758,-0.08950666792,0.9289818083,0.3478875756,1.266245484,-0.2543684244
1.726061576,0.2160048036,1.13223176,0.4123613238,1.185768962,-0.2067209929
1.32679104,0.01968786629,0.890454217,0.4836549461,1.070346475,-0.09361201525
0.7241910571,-0.2962117283,0.2995993249,0.537309587,0.9888499975,0.04909233004
-0.05705516339,-0.7235626961,-0.5678121624,0.5589520335,0.9315001369,0.1852653474
-0.5905880579,-1.197041209,-1.511827874,0.512681067,0.8373751044,0.2791552842
-0.4758627775,-1.798686667,-2.426437458,0.4315033853,0.7305125594,0.3152901232
-0.1696206536,-2.345847671,-3.065032299,0.3393050432,0.6297990084,0.3083557487
0.2666325826,-2.764537194,-3.566401273,0.2426842451,0.5256918073,0.2797115743
0.9164443983,-2.9630683,-4.115245993,0.17482844,0.42747733,0.2928012609
1.427237035,-2.786130601,-4.510018633,0.1367628127,0.3391586244,0.3380869925
1.80168468,-2.20232592,-4.906695353,0.1301622242,0.2838834226,0.3925910592
2.065448429,-1.280874507,-4.964444947,0.1299222708,0.3268167973,0.4285730422
2.16291044,-0.2169265947,-4.617845386,0.08694253117,0.3469611406,0.4251206219
2.568314364,0.8048907338,-4.340613668,-0.004278463311,0.3290205002,0.3796013296
2.973811812,1.590041579,-4.126059648,-0.07823136449,0.1787874699,0.3070003688
3.226545049,2.376080897,-4.053501484,-0.1219753847,-0.1251439303,0.2267889082
2.980093669,2.939536618,-4.149083673,-0.1649134606,-0.4965043366,0.1639622003
2.106680019,3.101760731,-4.594201183,-0.2965005338,-0.835175395,0.1222845316
1.062246369,2.792934436,-5.437852148,-0.5867100358,-1.182145357,0.06798212975
0.6756219643,2.359914775,-6.477071278,-0.9002231956,-1.578999281,-0.01851227693
0.63008654,1.91672268,-6.360813965,-1.114408016,-1.999557853,-0.1211656854
0.4701052369,1.578012703,-5.266227753,-1.157656074,-2.267541647,-0.234266147
-0.5426280368,1.410419756,-3.246529852,-1.143938541,-2.23347497,-0.3675446808
-1.836570115,1.221335692,-1.304043201,-1.106084108,-2.032231808,-0.5847827196
-2.138407867,1.159513734,0.4733212763,-0.9975281358,-1.706362009,-0.8932330012
-2.094779153,1.747600623,2.321955924,-0.8151668906,-1.36660409,-1.31485641
-1.659727694,2.804798477,3.873391001,-0.5905535817,-1.167427182,-1.824261308
-0.6112848089,4.119911939,4.917877257,-0.3342117667,-1.18243897,-2.377922773
0.6821451555,5.714708603,5.582863261,-0.07497232407,-1.371655941,-2.912602186
1.763436929,7.055977081,5.723236777,0.1913027614,-1.629717112,-3.26484108
2.057840731,8.234365027,5.707943347,0.4045962095,-1.78191483,-3.29702425
1.313052291,8.372936463,5.32482315,0.4538761675,-1.643410206,-2.913013935
-0.2739066652,7.05452922,4.658095855,0.3398426473,-1.084432364,-2.232406139
-2.532664082,4.551149392,4.086854888,0.2628176212,-0.3862524033,-1.773802876
-3.217136,2.244141447,4.014648314,0.2496518046,0.1762365401,-1.616204739
-2.826056077,0.7282914782,3.590861176,0.1993127316,0.4044140577,-1.679100156
-1.933167326,-0.5665355666,2.824571684,0.1212953255,0.3904946446,-1.837084055
-1.512098507,-1.395674606,2.175751801,0.04566288739,0.273403734,-2.000908613
-1.653346761,-1.599167135,1.632743241,0.0002561565489,0.06019441783,-2.112182617
-1.944908033,-1.691207705,1.220529636,0.02213855274,-0.2930123806,-2.089199543
-2.302285593,-1.836508156,0.8455442312,0.1183366179,-0.7005562782,-1.954336882
-2.698513693,-1.964227943,0.4288888449,0.2376057506,-1.18634057,-1.666570902
-2.769629841,-2.194989001,-0.5343202272,0.3022746742,-1.773988485,-1.295015574
-2.527434657,-2.453808864,-1.548667366,0.2200018913,-2.370604277,-0.996830523
-1.867362436,-2.959387566,-2.636455296,0.02650971524,-2.724335432,-0.7769863605
-1.56390819,-3.389220998,-3.590012158,-0.2003042549,-2.56632781,-0.6247022748
-1.875283,-3.292350523,-3.891453604,-0.4025661051,-1.927037716,-0.4915845394
-2.626285492,-2.573440037,-3.24865079,-0.5980136395,-1.178380847,-0.3700650334
-2.868088754,-1.663167605,-2.33625859,-0.7314476371,-0.5859287381,-0.3078726828
-2.525277187,-0.7795727526,-0.9843158653,-0.75012362,-0.266661495,-0.2730624974
-1.970966311,-0.006927168915,0.3178404995,-0.6664632559,-0.2363227457,-0.2373642623
-1.429239607,0.3632867842,1.342498897,-0.5680421591,-0.3744920492,-0.1799228042
-1.288286245,0.169550511,1.778565086,-0.4819504917,-0.5600342751,-0.09800323844
-1.625363652,-0.2506505851,2.028873141,-0.3842721283,-0.6548960805,0.003448819043
-2.39000187,-0.6193722538,2.435676995,-0.2915806472,-0.6432810426,0.1432901472
-3.270490574,-1.004160676,2.665592251,-0.2193527818,-0.4945025146,0.2307464927
-3.660990943,-1.533977162,2.557921858,-0.1716706455,-0.3358629346,0.3500784039
-3.375709775,-1.600993765,2.808383642,-0.07362450659,-0.1423635334,0.4941340983
-2.929871548,-1.305557698,3.252089825,0.03506771475,0.03479829431,0.6494988203
-2.204093514,-1.40960201,3.089564682,0.132017687,0.1328606755,0.8046473861
-1.197977613,-1.573773166,2.557620829,0.2064908147,0.1910086125,0.9235259891
-0.315097046,-1.587836178,2.005290898,0.2559816837,0.2644301057,1.003739357
0.305083017,-1.537642698,1.422451554,0.2665163875,0.3596149683,1.057216406
0.5904308215,-1.543390302,0.7512000601,0.2517944276,0.416689992,1.099708796
0.7129580077,-1.508662103,0.3209910725,0.2217392176,0.4256900549,1.132680178
0.7159434533,-1.402167476,0.008130699486,0.154624626,0.3814980686,1.169932246
0.8167588662,-1.142082707,-0.3568967909,0.06458561122,0.2923949063,1.193473101
1.123271039,-0.7497481077,-0.576545504,-0.02534800582,0.1669586748,1.232743859
1.496063611,-0.2892810522,-0.689071813,-0.08408711106,0.0174270831,1.26435709
2.065222219,0.2195411611,-0.6070873572,-0.1146213189,-0.176803112,1.259264827
2.937982959,0.6191594878,-0.6282543562,-0.1487197429,-0.4175332785,1.153002858
4.110903579,1.005071361,-1.006350295,-0.2183616757,-0.6221186519,0.9306046367
5.051268075,1.273484982,-1.674628618,-0.3072566092,-0.68493855,0.5733847618
5.377597878,1.546634399,-2.010495188,-0.3675335348,-0.611728251,0.1136025041
5.46297899,1.905613257,-1.682517326,-0.3957244754,-0.4421240985,-0.357707113
5.33549009,2.082157572,-0.9541185877,-0.4055816233,-0.2482188046,-0.7598103285
4.937822897,1.928003368,0.04998743522,-0.3893752098,-0.05112411082,-1.016403556
3.966670757,1.526390652,1.37860686,-0.3412300646,-0.0007259187987,-1.072853208
2.98189838,0.9603273792,2.486160105,-0.3042470813,-0.1378553361,-0.8837143183
2.090084273,0.1934200469,3.047708823,-0.2650802135,-0.3603568375,-0.4898650348
1.357621062,-0.4427174638,3.387128994,-0.1765354574,-0.3708145618,0.02456443012
0.514528316,-0.2943237226,3.251074802,-0.01121946052,-0.1762333661,0.5663544536
-0.05198825365,0.9598884032,2.108141616,0.2000351548,0.2141569108,1.012124181
-0.7131456393,2.10415956,0.7137269463,0.359636277,0.8626076579,1.342345476
-1.950838884,3.045339172,-0.5219163804,0.4792116582,1.646022797,1.525483489
-3.387581999,4.316140029,-0.8687667013,0.5787534714,2.243345499,1.481645226
-4.349105602,5.220346877,-0.05006780698,0.6609652638,2.310402155,1.155792475
-3.006218583,5.384510434,0.3045882192,0.6315258741,1.778378487,0.4843909442
0.5477402653,5.37527908,-0.2619061386,0.4800210893,0.9130980372,-0.3551408947
3.096005821,5.355521071,-0.7685550995,0.1985790431,0.2330398858,-0.9291740656
2.08659117,3.908621888,-1.00218996,-0.0703926608,0.1166026071,-0.9096885324
-1.408723473,1.278804131,-0.2868491489,-0.1155140698,0.3874650002,-0.4762135148
-3.709898475,-0.3329097661,1.503718509,0.05486970395,0.7209823132,0.08750671148
-4.493793474,-1.317680097,3.096840226,0.2869828343,0.9125235081,0.6032941341
-4.689902322,-1.851984542,3.710553431,0.5012057424,0.9310336709,0.9533802867
-4.626619352,-2.044154297,3.612840368,0.6883063912,0.850053072,1.152815819
-4.680065987,-2.243483275,3.211859229,0.8391239643,0.7362453341,1.19331944
-4.523813934,-2.455490534,2.260939437,0.8960458636,0.5506858826,1.113176465
-4.231114598,-2.343293311,0.5218208111,0.8426144123,0.2398891896,0.9662277102
-3.952013286,-1.503601897,-1.234142567,0.7326700687,-0.08143877238,0.7695726752
-3.569237081,-0.7225263388,-2.078313464,0.5468590856,-0.1752924323,0.5150917768
-2.929197302,-0.5489256756,-2.743584714,0.2812667787,0.2920683622,0.2667840123
-2.475063542,-0.1463560979,-3.67686422,-0.04235718027,1.284222007,0.1304999739
-2.121093452,0.3834317466,-4.344033413,-0.295825392,2.234891653,0.1211203188
-1.043883614,0.6394616866,-3.872423325,-0.4088452756,2.722434282,0.2164021134
0.2672515913,0.4965864166,-2.866129436,-0.4489167929,2.661226749,0.3620024621
1.389761583,-0.02382102057,-1.93221777,-0.3959322572,2.129095078,0.5038180947
2.289135312,-0.1933195091,-0.7655611784,-0.3705334365,1.385484695,0.5628478527
2.760745108,-0.2961626285,-0.09233458483,-0.4421494901,0.682240665,0.5417065024
2.324748623,-0.3248924639,0.3515302954,-0.4905881286,0.2151799947,0.528760314
0.705979547,-0.1181833118,1.046765307,-0.4474133849,0.007376055233,0.5575246215
-1.066760632,0.20064766,1.638489091,-0.3562571108,-0.04137470573,0.5878468156
-1.959997904,0.1760474718,1.701153345,-0.2827587128,0.07052858919,0.6318220496
-2.773216175,-0.1271937168,1.498699512,-0.2278286368,0.2054382116,0.7063466311
-2.935403464,-0.5513461808,1.096326334,-0.1403339952,0.2342937589,0.7869318128
-2.146564139,-0.8521592654,0.7074012504,-0.05589900166,0.2930335104,0.8606460094
-1.604906409,-1.230266602,0.3055564797,0.003643210046,0.4056322575,0.9075662494
-0.8315477084,-1.613688412,0.05965513502,0.04681678116,0.5539826155,0.8846566677
0.1015150856,-1.546034095,0.2733750426,0.1037813723,0.6589365602,0.7780293226
1.130474687,-1.259850424,0.6802385182,0.1642124951,0.6732177734,0.6007924676
2.046107038,-1.056764139,0.8460749771,0.2286623269,0.605543375,0.3941954076
2.375824292,-1.011775242,0.9836989024,0.2458205372,0.4954850674,0.2124511749
2.028052472,-1.109182893,0.9044044164,0.2066350579,0.4734223783,0.1212219298
0.8919114301,-1.311677642,0.7071183418,0.161490038,0.5534770489,0.1158406958
-0.08392221886,-1.267511168,0.6747621326,0.1308419108,0.6991294026,0.1612116843
-0.612277254,-0.9924842664,0.7063426812,0.1185998917,0.8997468948,0.2175178379
-0.7045231377,-0.7351993579,0.7515466816,0.1257327944,1.080376506,0.2728555202
-0.2957154692,-0.5073720145,0.8520031981,0.1479946971,1.18593514,0.2987672687
0.543073406,-0.3485802134,0.8461883743,0.1790365577,1.182086587,0.2930247188
1.449184078,-0.2318342409,0.8633698107,0.2140765637,1.089361548,0.2574459612
2.159728887,-0.2513607792,0.9708090257,0.2700098157,0.9162054658,0.206772849
2.559940504,-0.3131961808,1.073769634,0.3362224102,0.7110517621,0.150242731
2.519021634,-0.3499041555,1.076509288,0.4191592336,0.5537232757,0.1093782485
2.044011089,-0.4108516684,0.8715706528,0.486449331,0.5340041518,0.09296278656
1.262217738,-0.5434785162,0.5357628272,0.533301115,0.6045703292,0.1142809242
0.6385960097,-0.6909528044,-0.03579349018,0.5308936238,0.7372357249,0.1516024619
0.1941886931,-0.8070575564,-0.8133993266,0.4879036844,0.9093865752,0.1789654642
-0.2053799492,-0.9091618401,-1.608044853,0.4682876468,1.042902231,0.197257638
-0.2614320913,-1.029886069,-1.969306561,0.4575628936,1.100026608,0.1894559711
0.1060755345,-1.222442192,-2.395322189,0.3936403692,1.033579111,0.1515916735
0.9243979877,-1.511407603,-3.173367878,0.2900713682,0.9250183105,0.09600738436
1.573331267,-1.689908897,-3.658172379,0.1750701964,0.8025727868,0.08927358687
2.001013074,-1.705443151,-3.982269601,0.1350445449,0.6843218207,0.119305253
2.494680388,-1.269210958,-3.971193495,0.1619997174,0.5570560098,0.1591386944
2.821504113,-0.6707534815,-3.886018427,0.2067044526,0.4244810939,0.2015935332
3.18017142,-0.1368681386,-3.777939745,0.2523611784,0.2757757604,0.2153173238
3.665833707,0.4275947134,-3.747448453,0.2512457669,0.1010555699,0.1933933198
3.778482766,0.9764783035,-3.91967549,0.2169112414,-0.1041716188,0.1483962834
3.191144065,1.393643393,-4.07791521,0.09726350754,-0.3302461803,0.117485173
2.160291782,1.532004985,-4.659038105,-0.1268880963,-0.4890289009,0.09448824823
0.87488723,1.440347276,-5.037223767,-0.374024123,-0.6453351378,0.08197704703
0.0414379258,1.383649238,-5.242018026,-0.6505070925,-0.9110627174,0.03296582401
0.09106679338,1.266296531,-5.448356591,-0.8868970871,-1.369717002,-0.05374036357
0.4820452656,1.0040578,-5.13659132,-1.011098266,-1.926861405,-0.1774665713
0.5494131669,0.8781915323,-4.198744945,-1.045325637,-2.324606419,-0.2834718823
-0.5150023633,0.7271113285,-2.846642061,-1.064193606,-2.413352251,-0.4121419787
-1.754901886,0.6544552576,-1.407181504,-1.066029429,-2.281082392,-0.6482865214
-1.986833158,1.086056284,0.00128361007,-1.005742073,-2.0549438,-1.024170399
-1.589225148,2.147005599,1.408737502,-0.8223631978,-1.685178518,-1.51668942
-1.639223835,3.900981603,2.87154094,-0.5518246889,-1.27675271,-2.063016891
-1.248177522,5.504178431,3.873192848,-0.2608114481,-0.9822741747,-2.59433794
-0.2175976258,6.9270222,4.654570604,-0.005180209875,-0.8642956018,-3.022426367
1.187755494,8.207728365,4.95691572,0.2152019143,-0.8151710629,-3.149796486
1.70108291,9.027835372,5.036283856,0.3107010126,-0.7749040127,-2.909061193
1.386120012,8.302124558,4.592441188,0.2457949072,-0.4529777169,-2.375633001
-0.5395461451,6.005510581,4.125037026,0.1125156805,0.0302738864,-1.920179963
-1.842980859,3.161877639,3.937881301,0.06420456618,0.4821992517,-1.741442084
-2.002775115,1.131660682,3.922700098,0.05937039852,0.7312764525,-1.777552128
-1.771992137,-0.08529343414,3.464094745,0.06037601084,0.7293155789,-1.89661479
-1.546207698,-0.645973845,2.639196411,0.07347716391,0.524569869,-2.000801802
-1.756632948,-0.7259346859,2.016200122,0.1283780038,0.2341231704,-2.079089403
