accelerometer.x,accelerometer.y,accelerometer.z,gyroscope.x,gyroscope.y,gyroscope.z
-1.4227544,5.4857144,9.088389,-0.38801113,-0.9854737,-0.19600287
-0.9151836,5.059547,9.212888,0.007190323,-0.8832113,-0.22156847
-1.4083891,4.9823337,8.690952,0.123300724,-0.8491239,-0.22689463
-1.441908,5.251083,7.9912467,0.20212796,-0.80651456,-0.055392116
-1.513734,5.0930657,8.106169,0.11477886,-0.7106436,0.09587097
-1.1258733,5.2702365,8.182783,0.023168819,-0.60092455,0.14806738
-0.7140707,5.3420625,7.8428063,-0.06737599,-0.40918264,0.17576344
-0.5602432,5.5096564,7.9050555,-0.11531147,-0.32502922,0.12463226
-0.20590134,5.849633,8.000824,-0.111050546,-0.26537618,0.06817491
-0.31603462,5.921459,7.5171947,-0.12915951,-0.013981183,-0.2226337
-0.3878607,5.849633,7.2005615,-0.18242116,-0.04061201,-0.31850466
-0.29209262,5.801749,7.593809,-0.29320538,-0.1663095,-0.48574626
-0.57999533,5.385158,7.675212,-0.38588065,-0.1854837,-0.562443
-0.83378077,5.131373,7.972093,-0.47109932,-0.18335323,-0.5517907
-1.4036007,4.51307,8.2593975,-0.61597097,-0.19080986,-0.40798426
-1.7633295,3.7942111,8.417415,-0.6319495,-0.054460037,-0.025565593
-1.3461399,4.000711,8.6334915,-0.5264914,-0.092808425,0.18002439
-1.5664065,4.1252093,8.791509,-0.3997287,-0.0629819,0.31424373
-0.99179804,4.39336,8.944737,-0.1259638,0.12982528,0.470833
-0.49320555,4.584896,8.820239,0.043408245,0.15752134,0.40159285
-0.40701428,4.9440265,8.359954,0.10519176,0.045671865,0.3877448
-0.8098387,4.819528,8.700529,0.09240896,-0.19720127,0.25246024
-0.33518824,4.8817773,8.374319,0.06364767,-0.14713532,0.18854624
-0.51714754,4.584896,8.710106,0.10732222,-0.059786204,0.16937205
0.023942016,4.9057193,8.815451,0.11158316,0.17456506,0.17150252
-0.23942018,5.0691237,8.911219,0.20212796,0.27682742,0.12676273
0.5267244,5.6341553,7.948151,0.20212796,0.22143531,-0.023435127
0.46447513,5.8400564,7.8236527,0.12010502,0.20439158,-0.29187384
-0.095768064,5.1744685,7.8906903,0.04873441,0.21291345,-0.3483312
-0.7236475,4.972757,8.278551,0.07643047,-0.06724283,-0.044739787
-0.49799395,4.9440265,8.743625,0.16377957,-0.050199106,0.03515269
-0.87208796,5.011064,8.388684,0.12969212,0.016910573,-0.05965305
-0.66139823,4.948815,8.738836,0.23941112,0.09999875,-0.051131185
-0.74758947,5.121796,8.316858,0.3065208,0.38122028,0.057522584
-1.1450269,5.2223525,7.7087307,0.2415416,0.19373925,0.07776201
-1.0348936,5.3276973,8.115746,0.27136812,0.10532492,-0.049000718
-0.5554548,5.1026425,7.9529395,0.28308567,-0.02356828,-0.07456631
-0.37349546,4.8817773,8.432379,0.184019,0.10852061,-0.44420218
-2.12246,5.777807,8.369531,0.42689213,0.36204606,0.05965305
-0.35913026,5.8639984,6.779182,0.15525772,0.4856131,0.27163443
-1.6190789,5.9358244,6.506243,-0.21970432,0.31411058,-0.10758854
-1.3988123,5.6245785,7.08564,-0.41677243,-0.18654893,-0.109719
-1.417966,5.0493712,7.9768815,-0.57549214,-0.52209735,-0.13634983
-1.1210849,5.251083,8.7292595,-0.49879536,-0.64459914,-0.16085018
-0.95827925,4.757279,8.532935,-0.35711938,-0.23022349,-0.012782796
-0.9151836,5.073912,8.738836,-0.24420467,-0.17163567,-0.03515269
-0.99658644,4.747702,7.852383,-0.21544337,-0.08109087,-0.030891757
-0.12449849,4.733337,7.9194207,-0.22396524,-0.08322133,0.10119714
-0.08619126,4.187459,8.2354555,-0.31877097,-0.11837402,-0.047935486
-0.33039984,4.642357,9.030929,-0.24100897,-0.01611165,-0.27696058
-1.7298107,4.297592,8.796297,-0.05033226,0.42596006,-0.22582941
-1.7968484,4.9105077,8.302493,0.0774957,0.18734786,-0.051131185
-1.1737574,4.9057193,8.19236,-0.19626918,-0.09067796,-0.009587097
-1.0061632,4.5322237,8.767567,-0.31024912,-0.18441847,-0.06284875
-1.0636241,4.3885717,9.002198,-0.15685557,-0.1758966,-0.039413624
-0.88645315,4.3263226,8.652645,-0.054593194,-0.16524427,-0.029826526
-1.0636241,4.4939165,8.432379,-0.06418029,-0.045938175,-0.08628388
-1.1498153,4.757279,8.781932,-0.09081112,0.020106273,-0.07456631
-1.1258733,4.522647,8.78672,-0.07802832,-0.08109087,0.029826526
-0.9247604,4.378995,8.647857,-0.10465915,-0.10559122,0.029826526
-0.6997054,4.3119574,8.963891,-0.145138,-0.059786204,0.038348388
-0.83378077,4.2401314,8.858546,-0.008788172,0.055258963,0.049000718
-0.670975,4.3023806,8.714894,0.005059857,-0.015046417,-0.0117175635
-0.7763199,4.259285,8.796297,-0.026897134,-0.0011983871,-0.034087457
-0.65660983,4.2066126,8.8777,0.050864875,0.026497671,-0.01065233
-0.9151836,4.201824,8.734048,0.07003907,0.06804176,0.050065953
-0.7044938,4.283227,8.585608,0.0902785,0.006258244,-0.053261653
-1.0875661,4.201824,8.288128,-0.03967993,0.004127778,-0.056457352
-0.919972,4.1156325,8.523358,-0.16750789,-0.061916668,-0.015978495
-0.8194155,4.220978,8.781932,-0.11211578,-0.116243556,-0.083088174
-0.9103952,4.2640734,8.714894,-0.055658426,-0.019307349,-0.07882725
-0.9391256,4.2401314,8.494628,-0.0034620073,-0.0022636203,0
-0.86729956,4.4460325,8.437167,-0.122768104,0.013714875,0.004260932
-0.98222125,4.1826706,9.102755,-0.10039821,-0.043807708,0.076696776
-0.97743285,4.1683054,8.935161,0.014646954,-0.02356828,0.07456631
-0.83856916,4.259285,8.585608,0.005059857,0.06378083,0.13421936
-0.8146271,4.24492,8.326435,-0.03967993,0.07230269,0.061783515
-0.99179804,4.4603977,8.297705,-0.031158065,0.035019536,0.07882725
-1.0684125,4.805163,8.273763,0.15632294,-0.057655737,0.083088174
-1.1258733,4.6710877,7.9768815,-0.25059608,-0.46777046,-0.057522584
-1.1067197,3.976769,8.623915,-0.45405558,-0.38148656,-0.08841434
-0.98700964,3.650559,9.313444,-0.4636427,-0.39320415,-0.023435127
-0.5943606,3.851672,9.960478,-0.15579033,-0.061916668,0.13315412
-0.65182143,4.120421,9.466674,0.15419248,0.36843747,0.16830681
-0.75716627,4.2880154,8.465898,0.2255631,0.5069178,0.2034595
-0.50757074,4.5274353,7.98167,-0.013049104,0.36204606,0.02130466
-1.8447324,4.1395745,8.652645,-0.22716095,0.18734786,0.060718283
-2.2182279,3.128623,9.356541,-0.11211578,0.4920045,0.3707011
-1.2695254,4.369418,8.245032,-0.0290276,0.45259088,0.50705093
-1.2024878,4.915296,8.2115135,-0.09613728,-0.053394806,0.23115556
-0.6853402,4.7524905,8.734048,-0.09187635,-0.3761604,-0.12676273
-0.57041854,4.24492,9.630077,-0.08122402,0.07762886,-0.16617635
-0.19632454,3.952827,10.118495,0.15206201,0.07762886,-0.1576545
-0.5602432,3.7223852,9.126697,0.22982402,0.1756303,-0.24606884
-0.39264908,3.7128084,8.532935,0.33741257,-0.23022349,-0.12995844
-0.047884032,4.144363,8.19236,0.33102116,-0.447531,-0.060718283
0.40222588,4.3119574,8.566454,0.086017564,-0.4177045,-0.27163443
-0.272939,3.5978866,8.930372,-0.10998531,0.050998032,-0.5358122
-0.95827925,3.9671922,8.197148,-0.16324696,0.24273998,-0.4740287
-1.2120646,3.8708255,8.034343,-0.08548495,-0.031024912,-0.33341792
-1.0875661,4.5322237,7.8954787,0.046603944,-0.26750663,-0.12782796
-0.84814596,5.0158525,7.852383,-0.22503048,-0.28135467,-0.14274122
-0.76195467,4.924873,8.480263,-0.42742476,-0.32929015,-0.07350108
0.01436521,5.0643353,9.241618,-0.22822617,-0.24513675,0.0117175635
-0.04309563,5.121796,8.432379,0.03062545,0.023301972,-0.03515269
-0.29209262,5.227141,7.713519,0.040212546,0.02223674,-0.050065953
-0.29209262,5.1984105,8.000824,-0.030092834,0.040345702,-0.120371334
-0.6997054,5.035006,8.3072815,-0.09613728,0.14793424,-0.18215485
-0.98222125,4.757279,8.398261,-0.08228925,0.20332636,-0.083088174
-0.9343372,4.584896,8.710106,0.09880036,9.32E-04,0.057522584
-0.7667431,4.3837833,9.404425,0.32889068,0.08615072,0.2386122
-0.84335756,4.948815,9.160215,0.3193036,0.3503285,0.3067871
-0.9295488,4.96318,9.030929,0.25325915,0.3822855,0.33341792
-0.4357447,4.4843397,8.7771435,0.37789142,0.047802333,0.4356803
0.17717093,4.7907977,8.949526,0.40239176,-0.23022349,0.35898352
-0.23942018,5.3564277,9.385271,-0.030092834,-0.27496326,-0.07030538
-1.7202339,3.9480386,11.23958,-0.3773588,0.11278155,-0.17576344
-1.5376761,3.6409822,10.66976,0.30545557,0.93194574,0.5251599
-1.3365631,5.2798133,6.956353,0.66976523,0.5271572,0.6274223
-1.4993688,4.235343,8.576031,0.8327459,-0.48587942,0.052196417
-1.9500773,2.9706059,8.968679,0.54300255,-0.67762136,-0.023435127
-0.89603,3.2004492,10.578181,0.008255556,0.14154284,0.11717563
-0.6997054,3.8133647,8.494628,0.03808208,0.91490203,-0.08841434
-1.7058687,4.4316673,5.945401,-0.11957241,0.6272891,-0.29933047
-2.2278047,3.482965,7.1287355,-0.080158785,-0.1758966,-0.3707011
-2.3092074,3.3249476,7.387908,-0.13768137,0.18415216,-0.069240145
-1.9213469,4.5178585,7.123947,-0.5595136,0.2725665,-0.02130466
-1.9979613,4.3167458,7.814076,-0.45405558,9.32E-04,-0.028761292
-2.007538,4.608838,8.7053175,-0.24313943,0.12236864,0.14700216
-1.7776948,5.763442,8.461109,-0.31451005,0.37695932,0.038348388
-2.2709002,5.5192337,8.719683,-0.300662,0.3567199,-0.049000718
-2.2852654,5.6628857,8.125322,0.15419248,-0.0022636203,0.092675276
-2.3187842,5.653309,8.139688,0.27882475,-0.25259337,0.004260932
-2.6635494,5.035006,8.628703,0.26071578,-0.30905074,0.111849464
-1.4754268,5.0062757,8.710106,0.2639115,-0.6083812,0.12356703
-0.545878,4.2784386,10.722432,-0.17070359,-0.51890165,0.14593692
-0.1388637,4.4316673,10.8948145,-0.3869459,0.5804188,0.026630826
-1.1881226,4.331111,9.519346,0.11158316,0.5814841,-0.13421936
-1.5185224,3.3393128,8.206725,0.6740262,-0.44113964,-0.1448717
-0.6087258,3.056797,8.2833395,0.5824162,-0.49653175,-0.3387441
-0.8146271,2.9753942,7.675212,0.11051793,-0.23448442,-0.42396274
-0.9295488,2.8269536,7.8811135,-0.1898778,0.18734786,-0.27056918
-1.4706384,3.1669302,6.9228344,7.99E-04,0.09999875,-0.07350108
-1.441908,3.4877534,6.084265,-0.035419,-0.09600413,0.061783515
-1.9452889,4.144363,6.587646,-0.5904054,-0.100265056,0.015978495
-2.280477,3.7846344,6.903681,-0.89825773,-0.0022636203,0.1256975
-2.2421699,3.6218286,8.173206,-1.0484556,-0.13967869,0.2673735
-1.3652935,3.3680432,9.725846,-0.8151696,-0.09600413,0.49852905
-0.599149,4.4460325,9.89344,-0.4636427,0.119172946,0.4878767
-0.7763199,4.2880154,9.155427,-0.38801113,0.37482888,0.34087455
-0.98222125,4.4460325,8.537724,-0.5232957,0.3503285,0.3898753
-0.9295488,4.853047,9.955689,-0.6063839,0.16071703,0.33128747
-1.1737574,4.3023806,11.915343,-0.3613803,0.39400306,0.2641778
-2.1751323,4.1826706,10.779893,0.13608351,0.7764217,0.4420717
-2.529474,5.3037553,9.227253,0.12649642,0.56550556,0.5592473
-2.0171149,3.5883098,11.35929,-0.06311506,-0.19080986,0.39520144
-1.441908,2.2038627,12.394184,0.6165036,-0.02037258,0.7424674
-0.57999533,3.2722752,8.99741,1.0724233,0.24380521,0.79999
-0.40222588,3.7367504,7.6943655,0.39280468,-0.100265056,0.16511112
-1.0971429,2.9753942,9.3421755,0.01677742,-0.28987655,-0.120371334
-0.8002619,3.0232782,9.86471,-0.059919357,0.08615072,-0.15552402
-0.1340753,3.5021186,8.201937,-0.05352796,0.2917407,-0.32489607
-1.5951369,3.8229415,9.006987,0.12223549,-0.38042134,-0.7115757
-2.2852654,3.7702692,8.039131,0.7219617,-0.39639983,-0.30891758
-1.1067197,5.5192337,7.243657,0.40452224,-0.511445,-0.2386122
-0.89603,5.265448,8.412626,0.103061296,-0.2174407,-0.54007316
-1.4275428,5.1361613,8.168418,-0.19094302,0.6240934,-0.5422036
-1.6717514,5.0493712,8.896853,-0.11957241,0.69439876,-0.6934667
-2.088941,3.674501,7.373543,0.56643766,0.07336792,-0.68281436
-2.385822,3.0184898,10.338761,0.48441473,-0.292007,-0.6774882
-3.1142578,2.5151088,8.844181,0.68148285,0.62941957,-0.17150252
-2.5007436,4.1060557,5.868787,0.53980684,0.28854498,0.1225018
-1.1258733,2.304419,7.8571715,-0.065245524,-0.6786866,-0.121436566
-0.84814596,1.5424645,8.254609,-0.23035665,-0.5519239,0.12356703
0.74758947,2.9370868,6.9850836,-0.5264914,-0.86723286,0.039413624
0.6853402,2.9418752,8.485051,-0.81197387,-0.7713619,-0.67642295
-0.21068975,2.6060886,7.0808516,-1.0484556,-0.21957116,-1.1259513
-1.2695254,2.2278047,7.2867527,-1.1794792,-0.4272916,-1.3262151
-3.2626984,2.5965118,8.264186,-1.7504442,-0.31544212,-0.7488588
-2.8892028,2.6922798,10.559028,-1.7589661,-0.43687868,-0.5187685
-3.1238346,2.1894975,11.877036,-1.2188929,-0.77668804,-0.2034595
-2.4384944,2.4384944,13.409924,-0.42316383,-0.99612606,0.17576344
-1.9835961,2.92751,12.197859,0.23515019,-0.45179194,0.49533334
-1.3844471,4.0438066,11.373655,0.39280468,0.3822855,0.6295527
-2.0506337,4.268862,8.485051,0.42476168,0.6794855,0.56031257
-1.9069817,3.2531216,9.184157,0.8678986,-0.09813459,0.53048605
-1.4850036,2.4001873,9.188946,0.984009,-0.44007438,0.6135742
-0.623091,2.7018566,10.333973,0.8433983,-0.25898477,0.6934667
0.29688102,2.7641058,11.191696,0.10838746,0.63155,0.27163443
-1.0779893,1.8543092,11.052833,0.14567062,0.9372719,0.038348388
-1.4131776,1.6334441,9.227253,0.41197887,0.94792426,0.17469822
-1.3126211,2.1272483,7.316082,0.3352821,0.41743818,0.18535055
-1.049259,2.2996306,7.9864583,0.15525772,-0.11943925,0.076696776
-0.8242039,1.6717514,9.840768,-0.116376705,-0.59666365,0.009587097
0.22026655,2.0171149,9.232041,-0.024766669,-0.0075897854,-0.005326165
-0.047884032,2.457648,8.245032,-0.31131434,-0.115178324,-0.34300503
-1.3269863,1.4514848,7.8236527,-0.25379178,0.21504392,-0.33022225
-1.7537527,2.8365304,6.8988924,-0.49240395,0.29919732,-0.1225018
-1.4514848,3.2387564,7.3926964,-0.63621044,0.1404776,-0.20452474
-2.3187842,2.9562407,8.585608,-0.4934692,-0.2632457,-0.24393836
-2.5725696,2.8078,10.032304,-0.145138,-0.44007438,-0.012782796
-2.03148,3.626617,9.955689,0.07856093,-0.2856156,0.06497922
-1.4083891,4.0581717,9.840768,-0.037549466,-0.49440128,-0.22369893
-1.5424645,3.435081,11.220427,0.01677742,-0.17057043,-0.41437563
-1.5616181,3.3967736,10.032304,0.040212546,0.02223674,-0.39520144
-1.1833342,2.1080947,12.16434,-0.048201796,-0.010785485,-0.29400432
-0.85772276,2.0027497,12.461222,0.05512581,0.19480449,-0.16298065
-0.4405331,1.1737574,10.290877,0.5355459,0.2342181,-0.052196417
-0.21068975,1.0061632,9.375694,0.6527215,-0.14393961,0.23115556
0.46926352,2.112883,8.863335,0.5962642,-0.054460037,0.029826526
0.29209262,2.6252422,8.053496,0.40878317,0.21078299,-0.22689463
-0.45489833,2.9753942,6.75524,0.13288783,0.21397868,-0.6093133
-0.97743285,2.9418752,7.5890207,-0.080158785,0.039280467,-0.59759575
-1.1258733,3.3201592,8.556877,0.123300724,0.08615072,-0.35365736
-1.1306617,3.899556,7.756615,0.026364516,0.28428406,-0.24287313
-1.4754268,3.9043443,7.569867,-0.09081112,0.31411058,-0.18535055
-1.8782512,4.3023806,7.766192,-0.020505736,0.16497797,0.061783515
-2.12246,4.6519337,7.6464815,-0.013049104,0.10106398,0.21091613
-2.0027497,4.939238,8.154053,-0.1259638,0.036084767,0.35365736
-1.6915035,4.5322237,9.059659,-0.300662,0.041410934,0.47509393
-1.9644425,4.546589,10.075399,-0.12809427,0.17030413,0.612509
-1.7824832,4.4460325,10.357915,-0.07696309,-0.53168446,0.644466
-0.99658644,3.0903158,12.3989725,0.12862688,-0.9204945,0.55711687
-0.7954735,2.4528596,12.451645,0.47908854,-0.5593805,0.5933348
-0.85772276,3.1190462,7.852383,0.5675029,0.2853493,0.32170036
-1.264737,3.281852,6.827066,-0.10572438,-0.1918751,0.06817491
-1.2743138,2.0841527,10.147225,-0.44659895,-0.41557404,-0.1906767
-1.2360066,1.7250223,10.405799,-0.2612484,9.32E-04,-0.034087457
-0.98700964,2.3570917,9.174581,-0.19094302,0.31198013,-0.004260932
-1.0061632,2.8078,8.201937,-0.1738993,0.39293784,-0.13954553
-1.2360066,2.802413,7.780557,-0.008788172,-0.06724283,-0.31424373
-1.4945804,2.5773582,8.115746,0.14780109,-0.047003407,-0.33767888
-1.9405005,3.0424318,7.5124063,-0.04394086,0.12876004,-0.24926452
-1.7872716,3.401562,8.139688,-0.21970432,0.14793424,-0.15552402
-1.2216414,3.7942111,8.168418,-0.13981183,-0.049133874,-0.099066675
-0.9056068,4.039018,9.528923,-0.33048853,-0.27070233,-0.25352547
-1.1785458,3.7846344,10.180744,-0.2612484,0.027562905,-0.32489607
-1.5951369,4.6279917,9.3421755,-0.31024912,0.1500647,-0.20132904
-0.57041854,4.5274353,12.671911,-0.53075236,-0.28241992,-0.6934667
-1.5520413,2.5390508,14.305954,0.09240896,0.17989123,-0.6540531
-1.4945804,2.7497406,8.978256,1.0639014,0.09999875,-0.056457352
-0.49320555,2.7210102,9.14585,0.75604916,-0.52316254,-0.23328604
-1.1593921,1.9740193,8.892065,0.74965775,-0.14074391,-0.16298065
-0.919972,2.8939912,6.9611416,0.5866771,-0.0757647,0.025565593
-0.9247604,3.459023,6.117784,0.3991961,-0.28135467,-0.10013191
-0.86729956,3.353678,6.467936,-0.10678961,-0.6861432,-0.28228676
-1.2120646,2.5246856,9.11712,-0.3709674,-0.30692026,-0.2844172
-1.1306617,3.1621418,7.6943655,-0.16963837,0.4472647,0.29080862
-1.5807717,4.024653,6.501455,-0.21863908,0.22356579,0.2162423
-2.112883,4.0054994,7.933786,-0.36244553,-0.019307349,0.5038552
-1.8351556,4.498705,9.620501,-0.3123796,-0.049133874,0.75738066
-1.3078327,4.6279917,11.320983,0.007190323,0.35778514,0.8255556
-1.9548657,4.51307,11.440693,0.16377957,0.7018554,0.8479255
-1.3269863,5.9980736,9.150639,0.13821399,0.6592461,0.7935986
-1.4802152,3.9384618,12.576143,-0.17176883,-0.3665733,0.4484631
-0.6997054,1.7106571,11.541249,0.9999875,0.69013786,0.8330122
0.12928689,3.7128084,7.08564,0.83807206,0.36204606,0.7350108
-0.4405331,3.6170402,8.623915,0.3672391,-0.11730879,0.023435127
-0.47405192,3.3488896,8.7532015,0.14567062,0.12023818,0.038348388
-0.670975,3.7415388,8.019978,-0.1355509,0.58254933,-0.46870252
-2.2517467,2.8125885,7.98167,-0.07696309,0.3268934,-0.32702655
-1.6621746,3.3249476,8.652645,0.35552153,0.10852061,0.13848029
-1.3413515,4.120421,6.7360864,0.60372084,-0.1790923,-0.10119714
-2.0458453,4.402937,6.697779,0.30119464,-0.5583153,-0.2098509
-2.112883,4.7189717,8.465898,0.19467133,-0.57748944,-0.014913263
-1.3700819,5.203199,9.150639,0.37789142,-0.14607008,0.099066675
-1.2072762,5.4138885,7.996035,0.50465417,0.06378083,-0.06284875
-1.049259,5.653309,8.7771435,0.07856093,-0.18654893,-0.24713406
-1.2312182,4.853047,10.34355,0.4769581,0.013714875,-0.24713406
-1.1641805,5.0547585,8.225879,0.83700687,0.29387116,0.051131185
-0.33997664,5.844845,7.2963295,0.96376956,-0.5721633,-0.002130466
-0.30166942,5.6628857,9.045294,0.5824162,-0.79053605,-0.30146095
-0.49320555,4.8386817,8.863335,0.4258269,-0.077895164,-0.329157
-0.5267244,4.8003745,6.851008,0.16271435,0.12130341,-0.35898352
-0.87687635,4.8147397,6.611588,-0.07696309,-0.052329574,-0.42396274
-1.073201,4.8482585,7.0425444,-0.23035665,0.10106398,-0.3067871
-1.1067197,5.4617724,6.5445504,-0.28574875,0.30026257,-0.29187384
-1.01574,5.8879404,5.763442,-0.25059608,0.061650362,-0.4324846
-1.4562732,5.547964,6.2620344,-0.32516238,-0.22489733,-0.6551183
-2.0458453,5.0930657,6.9850836,-0.35392368,-0.11304785,-0.5581821
-1.79206,5.0158525,7.20535,-0.26337886,0.055258963,-0.31424373
-1.8495208,6.022016,7.0712748,-0.101463445,-0.08109087,-0.3067871
-2.232593,5.7347116,7.4788876,-0.14407277,-0.14500484,-0.2226337
-2.304419,5.629367,7.9194207,-0.06311506,-0.15885288,-0.06604445
-2.1320367,6.443994,8.048708,0.11797456,-0.0821561,0.17682868
-1.9883845,6.75524,8.07265,0.07323477,0.046737097,0.11717563
-2.2373815,6.3338604,8.000824,0.032755915,0.12982528,0.12676273
-2.3570917,6.266823,8.379107,-0.049267028,0.21610916,0.24713406
-2.184709,6.467936,8.695741,-0.017310036,0.31091487,0.33022225
-2.1799207,6.132149,7.732673,0.023168819,0.28641453,0.2641778
-2.6491842,5.2606597,7.9289975,-0.16857313,-0.17057043,0.34620073
-1.7729063,5.4761376,9.615712,-0.19200826,-0.16737475,0.6348789
-1.0301052,5.7586536,9.898229,0.12223549,0.19693495,0.6061176
-1.8207904,5.418677,7.4884644,0.35871723,0.18415216,0.32809177
-2.4480712,5.227141,6.4631476,0.20532367,-0.01611165,0.19280718
-2.6396074,4.5274353,7.9289975,-0.36244553,-0.11304785,0.06391398
-2.7736826,4.1060557,8.652645,-0.43701184,0.104259685,0.08521864
-2.658761,3.6170402,8.297705,-0.177095,0.29706687,0.406919
-1.4466964,4.4364557,7.229292,0.05193011,-0.0011983871,0.55711687
-1.4083891,4.805163,7.3352356,-0.03648423,-0.15565717,0.25885162
-2.1559787,4.2880154,7.8188643,-0.17176883,0.12556434,0.30572188
-1.6915035,4.72376,7.402273,-0.20159535,0.2917407,0.5038552
-1.4466964,5.385158,7.330447,-0.16857313,0.119172946,0.48468104
-1.2934675,5.8544216,7.780557,-0.07589785,-0.0033288533,0.29506955
-1.4131776,5.801749,7.7470384,-0.07376739,0.13621667,0.23754697
-1.3221979,6.132149,7.6129627,-0.06950645,0.1852174,0.22795987
-0.97743285,6.4487824,7.699154,-0.049267028,0.028628137,0.057522584
-0.9391256,6.353014,7.996035,-0.051397495,-0.03422061,-0.08734911
-1.1067197,6.2380924,8.446744,-0.051397495,-0.092808425,-0.16085018
-1.1306617,6.1465144,8.834604,-0.022636201,-0.054460037,-0.16511112
-0.82899237,6.63553,9.174581,0.101996064,-0.15246147,-0.053261653
0.023942016,6.482301,9.553463,0.23088926,-0.3633776,-0.18641578
0.57520694,5.801749,9.509769,0.36084768,-0.5135755,-0.39413622
0.33518824,4.72376,9.227253,0.38321757,-0.5082493,-0.5837477
-0.6901286,4.5082817,8.987833,0.30439034,-0.23768012,-0.46550682
-1.2120646,5.083489,7.7757688,0.0838871,0.014780108,-0.0969362
-0.50278234,5.1505265,7.6464815,-0.0023967742,-0.116243556,-0.057522584
0.023942016,4.8147397,7.8188643,-0.037549466,-0.33248585,-0.19174194
-0.14844051,4.608838,7.9385743,-0.094006814,-0.48907512,-0.28548244
-0.56563014,4.5082817,8.6574335,-0.22183478,-0.33461633,-0.24713406
-0.7140707,4.6710877,8.671799,-0.22396524,0.07656363,-0.0969362
-0.5943606,4.948815,7.9864583,-0.15579033,0.33221954,-0.015978495
-0.6087258,5.6150017,6.625953,-0.06311506,0.20652205,-0.1033276
-0.7715315,5.6245785,6.769605,-0.035419,0.042476166,-0.22050324
-1.3700819,4.9344497,7.6369047,-0.020505736,0.24487044,-0.22156847
-1.5951369,4.8817773,7.0186024,-0.04287563,0.47176507,-0.07989248
-1.5616181,5.241506,6.329072,-0.17602976,0.49626544,0.099066675
-1.1641805,5.5910597,6.2859764,-0.26657456,0.39080736,0.16617635
-0.85772276,5.931036,6.367379,-0.33048853,0.29280594,0.1161104
-0.7428011,5.931036,7.0904284,-0.4157072,0.20971775,-0.106523305
-1.0061632,5.7921724,7.2484455,-0.39866346,0.25765324,-0.16191542
-1.3509283,5.6389437,7.2005615,-0.3581846,0.2789579,-0.14274122
-1.6430209,5.653309,7.9385743,-0.12063764,0.23102242,0.08947957
-1.3605051,6.0699,7.5746555,0.13501829,0.21397868,0.1906767
-1.1833342,6.2763996,7.100005,0.12756166,0.069106996,0.12676273
-1.2791022,6.18542,7.3926964,0.05512581,-0.08002563,0.026630826
-1.4802152,5.892729,7.689577,0.028494984,-0.16843997,0.001065233
-1.9261353,5.7395,8.614338,0.03808208,-0.08748226,0.1320889
-1.7968484,5.763442,8.451532,-0.014114338,0.088281184,0.2386122
-1.6867151,5.787384,7.9146323,-0.122768104,0.10319445,0.2673735
-1.4323312,5.3276973,8.245032,-0.34007564,-0.3111812,0.14806738
-1.6573862,4.9679685,9.294291,-0.45299035,-0.55618477,0.07989248
-1.3126211,4.1922474,10.8469305,-0.3549889,-0.1854837,0.25991687
-1.2838906,4.0677485,10.736797,-0.16750789,0.18095645,0.36963585
-1.441908,4.2401314,9.399636,0.11477886,0.46643892,0.42715845
-1.5520413,4.1922474,6.827066,0.3161079,0.33115432,0.2865477
-1.7537527,4.1012673,6.0699,0.15951864,-0.05126434,0.11078423
-1.7010803,3.3680432,7.0425444,-0.39546776,-0.52316254,-0.0117175635
-1.2455834,2.7736826,8.724471,-0.8236914,-0.49972743,0.04580502
-1.073201,2.5103204,9.504981,-0.9866721,-0.26218048,0.10758854
-0.96306765,2.4480712,9.677961,-1.0314119,0.012649642,0.2162423
-1.1019313,2.9753942,9.289502,-0.8513875,0.1692389,0.44420218
-1.0875661,3.425504,9.136273,-0.6649717,0.08721595,0.548595
-0.51714754,4.4603977,8.710106,-0.24526991,-0.09600413,0.6359441
-0.18674773,4.9823337,8.508993,-0.094006814,-0.22276686,0.55285597
-0.047884032,5.385158,8.432379,-0.04394086,-0.28455037,0.23435126
-0.46447513,5.28939,8.51857,-0.11531147,-0.17057043,-0.040478855
-0.98700964,4.900931,8.31207,-0.19094302,-0.061916668,-0.18748102
-1.6621746,4.4795513,8.383896,-0.26977026,0.0019973118,-0.13634983
-1.0348936,4.8578353,8.863335,-0.21224768,0.040345702,-0.030891757
-0.7188591,5.1888337,8.6813755,-0.11211578,0.033954304,-0.1161104
-0.6901286,5.1601033,8.456321,-0.07163692,-0.064047135,-0.23648173
-0.64703304,4.7189717,8.825027,-0.111050546,-0.35805145,-0.39413622
-0.87208796,4.292804,10.314819,-0.16537742,-0.20998406,-0.3898753
-1.039682,4.1060557,10.468048,-0.12170287,0.111716315,-0.2780258
-1.192911,4.307169,9.7641535,0.039147314,0.3300891,-0.090544805
-1.2024878,4.8099513,9.313444,0.26284626,0.1980002,0.037283156
-0.97743285,5.2127757,9.050082,0.38854375,0.012649642,0.033022225
-0.49320555,5.3899465,9.725846,0.37895665,-0.24726722,-0.083088174
0.05746084,4.6950297,10.952275,0.34593442,-0.11730879,-0.251395
-0.0047884034,3.4494462,9.802461,0.16058388,0.044606633,-0.39413622
-0.41180268,2.8365304,9.649231,0.028494984,-0.08428656,-0.3515269
-0.37828386,2.7210102,9.461885,0.10625699,-0.23235396,-0.2812215
0.3878607,2.8748376,9.284714,0.2031932,-0.3889432,-0.40052763
0.33518824,2.9227216,8.504205,0.066843376,-0.20572312,-0.5773563
-0.18195933,3.0280666,7.8954787,-0.065245524,0.013714875,-0.6348789
-0.84814596,3.1812954,6.884527,-0.07483262,0.1852174,-0.5698997
-1.1593921,3.6314054,6.4248405,-0.1483337,-0.010785485,-0.4900072
-1.1737574,3.7654808,6.649895,-0.22183478,-0.14393961,-0.470833
-1.513734,4.039018,7.4070616,-0.41038102,-0.1663095,-0.3845491
-1.7633295,4.4364557,8.48984,-0.5435352,-0.0054593193,-0.14593692
-1.4562732,4.9536033,9.654019,-0.15685557,0.058454663,0.11504517
-1.5089456,5.1409497,9.797672,0.24047635,-0.0054593193,0.21198137
-1.3605051,5.322909,9.112331,0.48334947,0.13515145,0.3323527
-1.4275428,5.749077,8.662222,0.39493513,0.08508549,0.30465665
-1.3461399,5.2846017,8.796297,0.35765198,0.08615072,0.26630825
-1.3365631,4.6232033,9.572617,0.35019535,0.09360735,0.3387441
-1.6190789,4.522647,9.917382,0.4226312,0.3567199,0.50705093
-0.9056068,6.0651116,8.99741,0.44074017,0.5985278,0.7318151
-0.30645782,5.9118824,9.380483,0.38215235,-0.17163567,0.2322208
-0.99179804,3.851672,10.3770685,0.700657,0.0019973118,0.12676273
-0.36391866,3.7606924,7.5124063,0.75711435,0.2757622,0.33661363
-0.5267244,4.9200845,7.53156,0.123300724,-0.16098334,0.020239428
-1.6915035,3.2962172,9.121908,0.09773513,0.19267403,-0.13954553
-1.01574,3.37762,7.1047935,0.16271435,0.5761579,0.32063514
-0.88645315,4.4556093,6.233304,-0.33368424,0.45791703,0.27376488
-1.2695254,4.3502645,7.9385743,-0.40718532,0.16497797,0.1320889
-1.1019313,4.120421,7.4693108,-0.035419,0.10106398,0.29400432
-0.7380127,5.1744685,7.277176,-0.06844122,-0.1854837,0.17150252
-1.7345991,4.6902413,8.412626,0.23621543,-0.22915825,-0.11504517
-1.3796587,5.3276973,6.539762,0.325695,-0.22489733,0.2226337
-0.5847838,6.4008985,7.41185,0.08282187,-0.3718995,-0.07137061
-1.2072762,5.8065376,7.498041,-0.10252868,-0.0629819,-0.29080862
-0.75237787,5.1984105,8.623915,-0.16963837,0.044606633,-0.08202294
-0.57041854,5.1744685,8.240244,0.22662832,0.09360735,-0.030891757
-0.50278234,5.1409497,6.716933,0.36297816,-0.054460037,0.14061075
0.8242039,5.524022,8.417415,-0.09613728,-0.52209735,-0.06391398
1.0588357,4.6806645,8.417415,-0.1419423,-0.3985303,-0.3707011
0.51714754,4.2401314,8.07265,-0.3581846,-0.5274235,-0.54966027
0.2633622,2.855684,8.925584,-0.6830807,-0.42516112,-0.722228
-0.50757074,3.0424318,9.102755,-0.96217173,-0.24513675,-0.42289752
-0.18195933,3.6074634,9.835979,-0.9089101,-0.08322133,-0.2545907
-0.5554548,3.9384618,9.150639,-0.5733617,0.010519176,-0.27056918
-1.2886791,3.9719806,8.292916,-0.4093158,-0.14500484,-0.33341792
-1.5855601,3.5835214,8.892065,-0.40825057,-0.060851436,0.012782796
-1.4323312,4.2305546,9.006987,-0.45405558,0.109585844,0.14806738
-1.6478093,4.2640734,9.370906,-0.26337886,0.21610916,0.24606884
-1.3988123,4.2544966,9.083601,-0.041810397,0.2533923,0.42076704
-1.073201,4.6471453,8.456321,0.12117026,0.28002313,0.44952834
-0.88645315,4.6375685,8.345589,0.116909325,0.3556547,0.47189823
-0.88645315,4.570531,8.034343,0.13395305,0.49626544,0.51983374
-0.86251116,4.9344497,7.4645224,0.043408245,0.5527228,0.6061176
-0.5847838,5.251083,7.579444,-0.10039821,0.4728303,0.5294208
-0.56563014,5.0493712,8.120534,-0.18561685,0.39293784,0.40585378
-0.57999533,4.489128,9.414001,-0.06950645,0.30878443,0.41224518
-0.95349085,4.2305546,10.262147,0.4162398,0.7700303,0.640205
-0.22984336,4.9440265,7.996035,0.22130217,0.5697665,0.6636402
-0.34955344,3.4638114,11.800422,-0.4263595,-0.26431096,-0.076696776
-1.1210849,2.4193408,11.249157,-0.013049104,0.27363172,0.08841434
-0.6278794,3.755904,7.98167,0.060451973,0.10639015,0.15232833
-0.9008184,2.5629928,9.198523,-0.23355234,-0.42516112,-0.35578784
-0.99179804,1.7441759,10.4249525,-0.34966275,-0.34526867,-0.2780258
-0.30645782,2.2613235,9.567828,-0.20159535,0.19160879,-0.2162423
-0.33997664,2.529474,8.724471,-0.15472509,-0.02356828,-0.37283155
-0.7188591,2.5342624,8.451532,0.056191042,-0.26750663,-0.47189823
-1.1162965,2.5965118,8.168418,0.2255631,-0.292007,-0.3067871
-1.240795,3.210026,7.5602903,0.10838746,-0.39000845,-0.3163742
-1.5999253,3.2435448,7.814076,-0.094006814,-0.447531,-0.30146095
-1.9117701,3.8325183,8.154053,-0.1323552,-0.33248585,-0.052196417
-1.7250223,4.4125137,8.106169,-0.08228925,-0.32183352,0.052196417
-1.3652935,4.9823337,8.149264,-0.04074516,-0.39000845,0.001065233
-1.1976994,5.16968,8.619126,-0.1738993,-0.31650737,-0.16298065
-0.7332243,5.5192337,9.442732,-0.22929141,-0.17483138,-0.2577864
-0.76195467,4.915296,9.759365,-0.1643122,-0.1886794,-0.48894197
-1.049259,4.134786,10.587758,-0.10998531,-0.116243556,-0.4356803
-0.39264908,3.851672,10.592546,-0.034353767,-0.12796111,-0.35578784
0.66139823,3.650559,10.933122,-0.18348639,-0.30052885,-0.35365736
1.0875661,3.1908724,11.651382,-0.3805545,-0.13754821,-0.5613778
-0.25857377,1.839944,10.219051,-0.17070359,0.2949364,-0.5049205
0.023942016,1.8782512,8.719683,0.20745413,-0.049133874,-0.27909106
0.41180268,2.1990743,8.6813755,0.3906742,-0.57748944,-0.36324447
0.062249243,1.8447324,8.2354555,0.2127803,-0.28241992,-0.59866095
-0.65660983,2.088941,8.254609,-0.21331291,0.06804176,-0.566704
-0.95827925,2.1894975,8.278551,-0.14726846,0.11065108,-0.39094052
-0.9008184,2.529474,8.07265,-0.095072046,-0.010785485,-0.25352547
-0.99658644,2.3427265,8.6813755,-0.18561685,-0.09813459,-0.11717563
-0.5267244,2.7449522,9.332599,-0.22396524,0.044606633,0.07137061
-0.31124622,3.128623,9.155427,-0.1611165,0.07975932,0.0074566314
-0.47884035,2.9753942,9.289502,-0.1579208,0.080824554,-0.0074566314
-0.29209262,3.152565,9.313444,-0.03967993,0.28961024,0.21837278
0.01436521,3.7032316,8.7771435,0.037016846,0.28961024,0.20878567
-0.2825158,3.8564603,8.144476,0.017842652,0.28428406,0.028761292
-0.47884035,3.8181531,7.86196,-0.066310756,0.19267403,0.028761292
0.17717093,3.8899791,9.251195,-0.14726846,-0.04487294,-0.16617635
-0.15801731,3.3201592,9.888652,-0.15046416,0.056324195,-0.29187384
-0.2873042,3.281852,10.152014,-0.17176883,0.22569625,-0.27056918
-0.2633622,3.0855274,9.883863,-0.14407277,0.22782671,-0.30785236
-0.047884032,3.1908724,9.620501,-0.32729286,-0.32289875,-0.470833
0.24899697,1.7537527,12.978968,-0.3901416,-0.80651456,-0.7690982
-0.5315128,0.3878607,11.862671,0.6165036,0.28428406,-0.4548545
0.5506664,1.3652935,8.513782,0.7869409,0.2853493,-0.2865477
1.3413515,1.3796587,8.738836,0.4162398,-0.6222292,-1.1057119
0.56563014,0.033518825,10.544662,0.10625699,-0.41983497,-1.3400631
0.1340753,1.0923545,8.78672,0.3161079,-0.21317975,-1.2516488
-0.23463176,1.4562732,8.201937,0.32462975,-0.4752271,-1.3113018
-0.46447513,1.7345991,8.853758,0.20851937,-0.87788516,-1.4103686
-0.7811083,1.9452889,9.093178,0.086017564,-0.68827367,-1.5509793
-1.4083891,1.7202339,8.441956,-0.07802832,-0.52209735,-1.6660244
-1.441908,1.8112136,8.801085,-0.18561685,-0.53168446,-1.6191542
-1.3557167,2.4241292,9.461885,-0.1579208,-0.48800987,-1.6638939
-1.46585,2.5390508,9.7162695,-0.07483262,-0.3953346,-1.6947857
-1.8112136,2.6396074,9.3661175,-0.0013315412,-0.3207683,-1.6830682
-1.7202339,2.831742,9.165004,0.11158316,-0.3761604,-1.6287413
-1.3605051,3.0041246,9.270349,0.1584534,-0.6243597,-1.6575025
-1.1785458,2.7449522,9.509769,0.124365956,-0.56683713,-1.7150252
-0.75237787,2.9083564,9.941324,0.0711043,-0.5338149,-1.705438
-0.31124622,3.0137014,9.749788,0.17230144,-0.5689676,-1.9090307
0.076614454,2.4480712,9.821614,0.042343013,-0.65418625,-2.1838608
-0.21547815,0.50757074,11.766304,-0.86310506,0.13834713,-2.4736042
-0.1388637,0.20590134,11.402386,-1.04526,0.8957278,-2.3021016
-0.18195933,-0.14844051,10.78947,-0.803452,0.9436633,-2.1444473
0.019153614,-0.5315128,9.5385,0.52276313,-0.17802706,-1.6308718
0.9103952,-0.1340753,8.992621,0.9115732,-0.89173317,-1.536066
1.3509283,0.02873042,9.44752,0.54939395,-1.2666953,-1.7160904
0.95349085,-0.320823,11.048044,0.12969212,-0.86084145,-1.8258094
0.4357447,0.23463176,10.108918,0.25112867,-0.26111525,-1.6734811
0.5506664,1.264737,8.456321,0.435414,-0.34526867,-1.6255456
0.1388637,1.5280992,8.623915,0.531285,-1.3327397,-1.9495096
0.35913026,1.5424645,9.7162695,0.62396026,-1.3487182,-1.8417879
0.7044938,1.8303672,9.332599,0.37576094,-0.9407339,-1.8524402
0.9103952,2.610877,9.179369,-0.07589785,-0.23554966,-1.9228787
0.36391866,2.586935,8.446744,-0.17283405,-0.0054593193,-2.1188817
-0.75237787,2.3331497,8.393473,-0.29853156,0.119172946,-1.923944
-1.0253168,2.5629928,8.599973,-0.300662,0.09147689,-1.7789391
-1.3940239,2.4001873,10.027515,0.008255556,0.030758604,-1.3933249
-1.5472529,2.5917234,9.303867,0.12969212,0.090411656,-1.0812116
-1.513734,2.7497406,9.634866,0.013581721,0.012649642,-0.8436645
-1.6525977,2.9083564,10.453683,0.08921327,0.17989123,-0.580552
-1.8064252,3.4925418,9.663596,0.499328,0.36311132,-0.09161004
-1.6142905,4.110844,8.724471,0.4769581,-0.20678836,-0.18002439
-1.9788077,2.5582044,11.057621,0.072169535,-0.5636414,-0.32383084
-2.2517467,0.7858967,11.115082,0.4908061,0.08615072,0.27696058
-1.01574,2.6970682,9.131485,0.5675029,0.059519894,0.5187685
0.16280572,3.1908724,8.734048,-0.065245524,-0.10346076,-0.5965305
-1.2886791,1.1019313,9.644443,-0.66603696,0.07975932,-0.95338356
-1.3365631,1.0301052,11.886613,-0.18774731,0.6485938,-0.19706811
-0.82899237,2.1799207,9.002198,0.45565343,0.759378,-0.28015628
-2.136825,2.2278047,6.9371996,0.36297816,0.14473854,-0.36857063
-1.666963,2.6731262,8.015189,0.40878317,-0.22383209,-0.001065233
-1.3461399,3.1621418,7.9385743,0.3651086,-0.19294032,-0.001065233
-1.417966,3.1717186,8.082227,0.23195449,-0.16524427,-0.32809177
-2.0649989,2.92751,7.751827,0.11371362,-0.19400556,-0.2450036
-1.4562732,3.530849,8.144476,0.0711043,-0.36870378,-0.113979936
-0.86729956,3.7463272,8.868123,0.116909325,-0.3718995,-0.34939644
-2.007538,2.5582044,8.916007,-0.059919357,-0.22170162,-0.37496203
-1.3221979,2.831742,10.300454,0.11158316,-0.10559122,0.005326165
-0.39743748,3.3584664,9.840768,0.25112867,-0.32822493,-0.019174194
0.7188591,1.9548657,12.039842,-0.1643122,-0.6872085,-0.6913362
-1.0779893,0.9343372,13.108254,-0.3059882,0.1404776,-0.6615097
-1.3988123,1.5616181,11.215638,0.109452695,0.66670275,-0.026630826
-0.87208796,3.459023,8.920795,0.62182975,0.4014597,0.17576344
-0.86729956,3.7128084,7.732673,0.6932004,-0.4528572,-0.3323527
-0.84814596,3.7702692,8.537724,0.30758604,-0.43155253,-0.53794265
-0.7811083,2.7688942,9.414001,0.16058388,0.004127778,-0.66257495
-1.5855601,2.3092074,8.130111,0.07323477,0.4238296,-0.43674555
-1.9165585,2.2948422,7.9194207,7.99E-04,0.3236977,-0.07989248
-1.0109516,3.4781766,7.900267,0.12223549,0.26724035,0.29293907
-0.5363012,4.096479,6.9707184,-0.03328853,0.23208764,0.2354165
-0.8242039,4.474763,7.147889,-0.364576,0.1308905,-0.023435127
-1.6962919,3.4685998,9.351752,-0.06950645,0.3045235,0.3099828
-1.1067197,4.4460325,7.9768815,0.20425843,0.118107714,0.534747
-0.17238252,4.6519337,8.743625,0.12117026,-0.39107367,0.27163443
-1.3317747,3.3393128,11.402386,0.008255556,-0.004394086,0.07243585
-1.8495208,3.1860838,10.559028,0.22662832,0.59959304,0.46976775
-1.2072762,4.3646297,8.7053175,0.31184697,0.2853493,0.5581821
-1.7681179,3.2483332,10.195109,0.20532367,-0.52209735,-0.061783515
-1.9357121,3.5452142,10.362703,0.21384554,0.13621667,0.54646456
-0.75716627,5.9597664,8.983045,0.2905423,0.53780955,0.3579183
-1.9692309,4.84347,6.731298,0.2287588,0.07017223,-0.18641578
-2.0649989,3.0903158,9.730635,-0.19946489,-0.5924027,-0.1906767
-2.1033063,2.1511903,10.228628,-0.008788172,-0.019307349,0.06391398
-0.8002619,2.754529,5.9741316,-0.035419,0.08615072,0.51663804
-0.22505496,3.6888664,8.177995,-0.5467309,-0.28987655,0.050065953
-1.1593921,2.8413188,8.643068,-0.30811864,0.010519176,-0.16085018
-0.7380127,3.779846,7.435792,-0.4806864,0.119172946,-0.083088174
-1.2503718,3.1812954,8.90643,-0.4039896,0.038215235,-0.34087455
-1.8303672,2.9993362,8.374319,0.22023693,-0.16737475,-0.07350108
-1.3509283,3.425504,8.053496,0.17230144,-0.12476542,-0.020239428
-1.5376761,3.425504,8.671799,-0.0322233,-0.08109087,0.012782796
-1.8495208,3.401562,9.097966,0.11797456,0.014780108,0.26204732
-0.17238252,4.570531,9.064447,0.012516488,-0.29307222,0.20239428
-0.1436521,3.5595794,9.461885,-0.056723658,-0.5039884,-0.22795987
-0.41180268,3.5930982,10.405799,-0.45299035,-0.35485575,-0.22156847
0.11971009,4.0677485,11.35929,-0.6894721,0.059519894,-0.49426812
-1.1210849,2.7257986,9.697116,-0.19413872,0.13834713,-0.5645735
-0.9391256,2.553416,9.121908,0.14673585,-0.3431382,-0.40159285
-0.033518825,3.056797,10.161591,-0.056723658,-0.45072672,-0.6327484
-0.87687635,2.6874914,10.573393,-0.10252868,0.23102242,-0.7286194
-1.3317747,2.6204538,8.22109,0.24047635,0.45472136,-0.46976775
-1.1881226,3.5212722,7.2245035,0.30332512,0.016910573,-0.47509393
-1.6525977,2.9706059,7.6608467,0.052995343,0.049932797,-0.54752976
-1.9835961,3.0137014,7.5602903,-0.15365987,0.20013066,-0.1193061
-1.7345991,3.2722752,8.087015,-0.12915951,-0.0789604,0.026630826
-1.6573862,3.3871968,8.7771435,0.060451973,-0.15352671,0.22795987
-1.4993688,3.9480386,8.825027,-0.01837527,0.049932797,0.26950395
-1.666963,3.7894228,9.14585,-0.04394086,0.13728191,0.2577864
-1.6765398,3.779846,9.582193,0.06364767,0.09467258,0.39946237
-1.7250223,3.5835214,10.429741,0.26284626,0.32263246,0.6071828
-1.6573862,3.6457705,9.850345,0.29480323,0.3588504,0.75098926
-1.5807717,3.4781766,9.548675,0.14886631,0.15858656,0.71370614
-0.8002619,2.9993362,10.089765,0.086017564,-0.09813459,0.74672836
-0.14844051,3.6697125,9.673173,0.07643047,-0.1854837,0.43354985
-0.75716627,3.0232782,9.433155,-0.20692152,-0.108786926,0.018108962
-0.95827925,2.3235726,10.281301,-0.3230319,0.21184821,0.12782796
-0.75237787,2.879626,8.2354555,-0.026897134,0.30665395,0.07243585
-1.01574,2.7880478,7.426215,-0.04713656,0.038215235,-0.03515269
-1.3700819,2.5917234,7.641693,-0.017310036,-0.23981059,-0.004260932
-1.0205284,2.9418752,8.106169,0.093474194,-0.40066078,0.06284875
-0.9151836,3.4398694,8.75799,-0.03648423,-0.0054593193,-0.11824086
-1.0684125,3.5930982,8.561666,-0.1419423,0.2789579,-0.16724159
-1.2886791,3.8181531,8.537724,-0.21970432,0.32263246,-0.19493765
-1.441908,3.8420951,8.935161,0.18934517,-0.042742476,-0.22689463
-1.4610616,3.674501,9.3661175,0.20425843,-0.19400556,-0.251395
-1.5568297,3.2866404,9.926959,0.04447348,0.096803054,-0.16617635
-1.2551602,3.4207156,10.247782,0.38428283,0.11384678,0.16085018
-0.65660983,4.2784386,9.241618,0.5579158,-0.18441847,0.14380646
0.33518824,3.5930982,9.912594,-0.1738993,-0.3207683,-0.47296345
-0.17717093,2.4432828,10.592546,-0.35711938,0.17456506,-0.630618
0.01436521,2.0410569,9.356541,0.060451973,-0.4209002,-0.59440005
-0.5943606,2.2038627,9.879075,0.034886383,-0.115178324,-0.61463946
-1.1162965,2.9514523,8.604761,-0.080158785,0.41317725,-0.54966027
-1.5759833,3.281852,7.349601,-0.0290276,0.36311132,-0.5453993
-1.8351556,3.1381998,7.8475947,0.008255556,-0.24620198,-0.49852905
-1.9213469,2.9227216,8.6574335,-0.13981183,-0.08961273,-0.43035415
-2.2373815,2.6252422,8.628703,-0.21224768,0.25871846,-0.13421936
-1.6867151,3.5260606,7.933786,-0.07483262,0.18415216,0.17469822
-1.7489643,3.70802,7.804499,-0.051397495,0.0115844095,0.19280718
-2.0123265,4.120421,8.197148,-0.22396524,0.11491201,0.3515269
-1.9261353,4.3023806,8.911219,-0.33794516,0.24913137,0.48255056
-1.8830396,4.1826706,9.141062,-0.27190074,0.16710843,0.5187685
-1.6334441,3.5212722,10.353127,-0.05778889,0.069106996,0.6955972
-1.5089456,3.5835214,10.923545,-0.062049825,0.21504392,0.7637721
-1.6867151,3.8181531,9.14585,-0.045006096,0.713573,0.74779356
-1.9740193,3.4925418,8.456321,-0.2676398,0.23847905,0.59440005
-1.1546037,2.7162218,11.320983,-0.038614698,-0.24620198,0.6955972
-0.9056068,3.1429882,9.7641535,0.35339105,-0.2078536,0.4292889
-1.073201,2.8125885,9.107543,-0.22822617,-0.33461633,-0.04260932
-1.2743138,1.9357121,10.58297,-0.4093158,-0.2696371,-0.35898352
-2.1894975,0.7667431,9.524135,-0.08655018,0.23208764,-0.19919857
-1.7872716,1.6142905,8.412626,-0.031158065,0.066976525,0.07882725
-0.9295488,2.3714569,8.461109,-0.04287563,0.012649642,-0.033022225
-1.1067197,2.3331497,8.048708,-0.16644266,0.023301972,-0.27269965
-1.7537527,2.1751323,8.805874,-0.22716095,0.053128496,-0.33767888
-1.6478093,2.1655555,9.26556,0.0838871,-0.14607008,-0.23115556
-1.8303672,2.9466639,8.935161,0.37576094,-0.08961273,-0.2066552
-1.5759833,3.4638114,8.748413,0.18188854,0.05738943,-0.21091613
-1.3844471,3.7511156,8.834604,0.0870828,0.027562905,-0.33128747
-1.8016368,3.0280666,9.706693,0.19147563,-0.17376614,-0.46337637
-2.4049757,2.385822,9.888652,0.3352821,-0.14074391,-0.27163443
-2.1751323,3.1669302,9.385271,0.62715596,-0.045938175,0.17895915
-0.76195467,5.1601033,8.412626,0.42050073,-0.7010565,-0.19280718
-1.0013748,2.903568,11.23958,-0.04394086,-0.93647295,-0.6817491
-0.97264445,2.0458453,12.4468565,0.08175664,-0.21424499,-0.4101147
-0.9295488,2.706645,10.266935,0.35232583,0.12023818,-0.28548244
-1.216853,2.7449522,8.734048,0.5035889,-0.10772169,-0.39839715
-1.1833342,2.9227216,8.571242,0.40771794,-0.053394806,-0.39946237
-1.1881226,3.2962172,7.924209,0.27882475,0.1884131,-0.4452674
-1.6334441,3.3728316,7.2340803,0.1584534,0.15752134,-0.47828963
-1.9788077,3.3584664,7.5363483,-0.020505736,0.21717438,-0.18002439
-1.8255788,3.6074634,7.4310036,-0.08441972,0.22356579,-0.04260932
-2.1080947,3.7702692,7.4405804,-0.124898575,0.16391273,0.03195699
-2.1080947,3.913921,7.98167,-0.16963837,0.10532492,0.35898352
-1.9165585,4.355053,8.04392,-0.18561685,0.1596518,0.45591974
-2.2278047,4.570531,8.173206,-0.3741631,0.17989123,0.4868115
-2.553416,3.8133647,9.212888,-0.39653298,0.1884131,0.6295527
-2.2709002,3.5164838,10.051457,-0.12809427,0.1564561,0.9161004
-2.12246,3.5595794,10.271724,0.023168819,0.18628262,1.0172975
-1.8447324,4.024653,9.44752,0.14567062,0.73487765,1.2164961
-1.7010803,4.378995,8.494628,-0.04074516,0.47069985,1.0758853
-1.6430209,3.7463272,9.859921,-0.26337886,-0.2046579,0.7690982
-1.5376761,2.9706059,11.052833,-0.037549466,0.39187258,0.81809896
-1.2791022,3.5883098,7.756615,0.02423405,0.41850343,0.7019886
-1.2599486,3.4685998,8.278551,-0.2388785,-0.06724283,0.3675054
-1.216853,2.7688942,9.528923,-0.32729286,-0.059786204,0.19706811
-1.1210849,2.3523033,10.099341,-0.24740037,0.109585844,0.12463226
-1.1306617,2.4432828,9.02614,-0.14620323,0.28641453,0.050065953
-1.3461399,2.553416,8.494628,-0.15365987,0.1756303,-0.10758854
-1.5855601,2.112883,8.6574335,0.101996064,-0.019307349,-0.12782796
-1.3413515,3.0520086,8.3551655,0.16697527,-0.01291595,-0.090544805
-1.1306617,3.6361938,7.86196,0.0018641578,0.13515145,-0.27269965
-1.5664065,3.6218286,7.957728,-0.10572438,0.05419373,-0.40265808
-1.8686744,3.7894228,8.177995,-0.06311506,-0.009720251,-0.3355484
-1.7968484,4.1922474,8.240244,-0.024766669,-0.15778764,-0.2354165
-1.6047137,4.5274353,8.432379,0.012516488,-0.24939768,-0.18641578
-1.6190789,4.6710877,8.63828,0.01677742,-0.3143769,-0.2290251
-2.3953989,4.7381253,8.762778,0.03062545,-0.401726,-0.30465665
-1.666963,4.7524905,10.405799,0.2287588,-0.61370736,-0.12782796
-0.10534488,4.7429137,11.215638,0.16271435,-0.653121,-0.34620073
-0.29209262,3.4111388,11.8339405,7.99E-04,-0.3303554,-0.6945319
-1.3365631,2.0219033,9.558251,0.43115306,-0.085351795,-0.41224518
-0.65182143,2.3810337,8.66701,0.47908854,-0.44113964,-0.393071
-0.6422446,2.3570917,9.131485,0.24580252,-0.36444286,-0.6316832
-1.1593921,2.553416,8.571242,-0.10252868,0.1756303,-0.7030538
-1.513734,3.1094694,7.378331,0.03808208,0.29280594,-0.63913983
-1.7202339,3.578733,6.4727244,-0.0258319,0.016910573,-0.6316832
-2.0937295,3.080739,7.972093,-0.34114087,0.06804176,-0.53048605
-2.36188,3.176507,8.201937,-0.29427063,0.052063264,-0.12995844
-2.2373815,3.3153708,8.599973,-0.11424624,-0.06511237,0.1225018
-2.0171149,3.5500026,8.082227,-0.09826775,0.01904104,0.315309
-1.7633295,4.177882,8.139688,-0.19626918,0.06591129,0.41437563
-1.8590976,4.2161894,8.470686,-0.2260957,0.08934642,0.46337637
-1.666963,3.8133647,9.222465,-0.32729286,-0.013981183,0.5113118
-1.6190789,3.425504,10.544662,-0.29533586,0.049932797,0.64659643
-1.5520413,3.2722752,10.880449,-0.04394086,0.38654643,0.89586097
-1.0348936,3.6457705,8.892065,0.02423405,0.09467258,1.051385
-0.65182143,3.176507,10.386645,-0.21757385,-0.4432701,0.78188103
-0.9008184,1.863886,11.115082,-0.0322233,-0.35911667,0.7254237
-0.5847838,2.7976246,9.107543,0.21064983,-0.10346076,0.64553124
-0.18195933,3.482965,8.058285,-0.05778889,0.032889068,0.30465665
-0.82899237,2.4768016,9.687539,-0.56164414,-0.13541774,-0.33128747
-1.3940239,1.7202339,10.587758,-0.364576,0.059519894,-0.2865477
-1.2312182,1.8830396,9.821614,-0.05778889,0.18947832,-0.098001435
-1.4083891,2.2756886,8.374319,0.039147314,0.08402026,-0.049000718
-1.2024878,2.7928362,8.561666,0.05512581,0.07762886,0.083088174
-0.6374562,3.684078,8.3072815,0.16591005,0.033954304,0.056457352
-0.96306765,3.82773,8.268974,0.13927922,-0.09706936,-0.2641778
-1.6478093,3.6218286,8.690952,-0.0013315412,0.109585844,-0.3035914
-1.3892355,3.9719806,8.686164,-0.13661614,-0.03741631,-0.2450036
-1.0444705,4.0533834,9.888652,0.046603944,-0.30585504,-0.3419398
-1.2312182,3.7989995,10.22384,0.21064983,-0.27922422,-0.36644015
-1.5711949,4.2161894,9.567828,0.25432438,-0.13541774,-0.25352547
-0.96785605,5.035006,10.233417,0.49187136,-0.57642424,-0.44100648
-1.4275428,3.176507,10.688913,0.32462975,-0.4699009,-0.640205
-0.84335756,2.232593,11.124659,0.22130217,0.004127778,-0.2354165
-0.6853402,1.6717514,9.788095,0.3619129,-0.10985216,-0.2577864
-0.8912416,0.99658644,9.26556,0.32143405,0.059519894,-0.099066675
-0.8146271,1.6334441,7.65127,0.22130217,0.119172946,0.15978496
-0.34476504,3.2387564,7.157466,-0.04287563,0.0435414,-0.2609821
-1.1162965,2.634819,7.2580223,-0.10572438,-0.02037258,-0.30465665
-1.3844471,2.5965118,8.504205,-0.2836183,0.21184821,-0.08521864
-0.96306765,3.554791,8.039131,-0.26657456,0.22356579,0.02130466
-1.4706384,3.080739,8.158841,-0.34966275,0.097868286,0.013848029
-1.7824832,3.1190462,8.580819,-0.40505487,0.059519894,0.26524302
-1.5185224,3.5978866,8.968679,-0.29853156,0.08402026,0.4878767
-1.0827777,4.225766,8.537724,-0.20479105,0.15539087,0.53794265
-1.073201,4.4460325,8.437167,-0.25272653,0.14154284,0.4154409
-1.3748703,3.9863458,9.011775,-0.2612484,0.25232708,0.43994123
-1.0971429,3.9863458,9.754577,-0.08122402,0.29280594,0.5645735
-0.6039374,3.9043443,10.386645,0.042343013,0.25978372,0.5517907
-0.49320555,4.024653,10.803835,0.14460538,0.44939518,0.43354985
-1.1881226,3.6457705,9.3661175,0.17549714,0.31411058,0.36324447
-1.2360066,3.25791,10.027515,-0.05033226,-0.30692026,0.27909106
-1.3317747,2.433706,11.829152,-0.0258319,-0.19613603,0.15445879
-1.1881226,2.5917234,9.102755,0.21384554,0.20119588,0.3355484
-0.7667431,2.984971,8.825027,0.088148035,0.07336792,0.08734911
-1.1402385,2.1942859,8.978256,0.010386022,0.045671865,-0.13954553
-1.0827777,1.8974048,8.99741,-0.048201796,0.18947832,-0.10865377
-1.3221979,1.6717514,8.724471,0.079626165,0.09147689,-0.12463226
-1.6190789,1.8543092,8.292916,0.13714875,-0.0075897854,-0.053261653
-1.0923545,2.6156654,8.398261,-0.0258319,0.004127778,-0.07882725
-1.0827777,2.7880478,8.206725,-0.011983871,-0.07682993,-0.1938724
-1.1354501,3.2914288,8.412626,-0.05033226,-0.13967869,-0.27056918
-1.1737574,3.9282866,8.734048,-0.13022473,-0.03422061,-0.41117996
-1.3557167,4.1299977,8.710106,-0.1323552,0.040345702,-0.44633263
-1.7106571,4.27365,8.805874,-0.0322233,-0.13754821,-0.46976775
-1.9357121,4.1922474,9.165004,0.17656237,-0.33781204,-0.4740287
-2.4289176,3.952827,9.778519,0.11903979,-0.15352671,-0.24713406
-2.3475149,4.747702,9.706693,0.27882475,-0.13754821,-0.047935486
-1.7154455,5.557541,8.8777,0.42369643,-0.47416186,-0.11078423
-0.6805518,3.3728316,11.416751,-0.0066577066,-0.5519239,-0.40478855
-0.22505496,2.6300306,12.43728,0.116909325,0.11278155,-0.19280718
-0.15322891,3.056797,9.102755,0.6196993,0.20971775,-0.18108961
-0.18674773,2.7641058,8.082227,0.5611115,-0.4699009,-0.4186366
-0.99658644,2.0123265,9.083601,0.36084768,-0.100265056,-0.4740287
-1.3126211,3.1381998,7.3831196,0.13075735,0.25232708,-0.33767888
-1.2934675,3.6984432,6.9611416,0.04447348,0.12982528,-0.47296345
-1.8255788,3.0903158,7.6943655,-0.1323552,0.0030625449,-0.5315513
-1.9979613,2.8987796,8.077438,-0.20266058,0.26084894,-0.06710968
-1.6867151,3.5404258,8.240244,-0.13342044,0.10745538,0.07456631
-1.5951369,3.5739446,8.053496,-0.1387466,0.19480449,0.29400432
-1.4993688,4.0916905,8.201937,-0.1643122,0.18308693,0.42396274
-1.489792,4.6232033,8.245032,-0.19413872,0.17456506,0.5155728
-1.3844471,4.819528,8.78672,-0.21224768,0.18202169,0.5091814
-1.5807717,4.4603977,9.255983,-0.15046416,0.19267403,0.5294208
-1.4371196,4.1395745,9.86471,0.080691405,0.39932922,0.67535776
-1.5424645,4.51307,9.097966,0.21064983,0.44832996,0.6838796
-1.8686744,4.197036,8.623915,0.050864875,0.041410934,0.5677692
-1.8590976,1.9500773,12.892178,-0.07802832,-0.4816185,0.48468104
-0.83378077,3.080739,9.102755,0.33741257,0.56124467,0.8340775
-0.41180268,4.0677485,7.450157,0.12862688,0.3045235,0.36537492
-0.9008184,3.0184898,7.5124063,-0.18029068,-0.10346076,-0.04260932
-0.7954735,2.3427265,9.998785,-0.3358147,-0.10239553,-0.0969362
-0.22026655,2.9514523,9.6923275,-0.1643122,0.17456506,-0.23435126
-0.41180268,3.1142578,8.3072815,-0.17816022,0.31730628,-0.5517907
-1.1976994,2.9562407,7.402273,-0.29640108,0.28108835,-0.7019886
-1.8926164,2.879626,7.9768815,-0.0258319,-0.18761417,-0.470833
-1.7441759,3.233968,8.091804,0.09986559,-0.24513675,-0.31743944
-2.0697873,3.7702692,7.9673047,-0.06844122,-0.15672241,-0.3131785
-2.3666685,4.1060557,8.350377,-0.10465915,-0.14500484,-0.18108961
-2.146402,4.6136265,8.767567,0.086017564,-0.34739912,-0.08202294
-1.9596541,4.9823337,8.868123,0.060451973,-0.23128872,-0.12676273
-2.0171149,4.891354,9.208099,-0.10039821,-0.18761417,-0.2450036
-2.3331497,4.402937,10.027515,-0.06098459,-0.12370019,-0.2545907
-2.0745757,4.2161894,9.826403,0.32995594,0.046737097,-0.013848029
-1.4323312,4.0438066,9.299079,0.48761043,-0.060851436,0.060718283
-0.9343372,3.9719806,9.548675,0.4002613,-0.27070233,0.0074566314
-0.31603462,3.0472202,10.947487,-0.1259638,-0.16950521,-0.361114
-1.3030443,2.1703439,9.950901,-0.09826775,0.24806614,-0.40159285
-1.4850036,2.0602105,9.414001,0.0711043,-0.18441847,-0.17256775
-0.8194155,2.5965118,10.099341,0.29160753,-0.21850592,-0.20239428
-1.1881226,2.7114334,7.7949224,0.23728065,0.2661751,-0.329157
-1.4754268,3.1238346,6.989872,-0.03648423,0.19267403,-0.3515269
-1.7968484,3.1812954,7.5267715,0.025299285,-0.004394086,-0.2098509
-1.6334441,3.5356374,7.7470384,-0.22822617,0.10745538,-0.13848029
-1.7250223,3.530849,7.8715367,-0.2612484,0.081889786,-0.13421936
-1.8686744,3.4877534,8.412626,-0.19307348,0.015845342,-0.036217924
-1.7824832,3.8420951,8.110957,-0.19307348,0.088281184,0.10226237
-1.6095021,4.4603977,8.437167,-0.3262276,0.17030413,0.1225018
-1.9548657,4.441244,8.700529,-0.38801113,0.17030413,0.06391398
-1.887828,4.173094,9.979631,-0.23994374,0.005193011,0.13315412
-1.7010803,4.110844,10.4728365,-0.0023967742,0.07656363,0.18641578
-1.5999253,4.0054994,10.290877,0.093474194,-0.13541774,-0.047935486
-1.8830396,2.6396074,11.727997,0.042343013,-0.31224644,-0.10226237
-1.3509283,2.12246,11.761516,0.26923764,0.097868286,-0.046870254
-1.1641805,2.2996306,9.054871,0.46097958,0.2960016,-0.060718283
-1.3796587,2.2948422,7.7183075,0.2681724,-0.042742476,-0.2673735
-2.0027497,1.2024878,9.155427,-0.080158785,-0.24939768,-0.2386122
-1.6573862,1.2982559,9.816826,0.015712187,0.027562905,-0.002130466
-1.4323312,1.8734628,8.48984,0.18827994,-0.010785485,0.04580502
-0.9343372,2.7114334,8.000824,0.12862688,-0.115178324,-0.113979936
-0.7715315,2.9897594,8.058285,0.13714875,-0.14287437,-0.35046166
-0.6326678,3.281852,7.8715367,0.15419248,-0.22383209,-0.4484631
0.009576807,3.5883098,8.556877,0.11264839,-0.6765561,-1.0417979
-0.86251116,2.610877,9.668385,0.101996064,-0.7031869,-1.3198237
-1.3940239,3.25791,8.604761,0.17336668,-0.21211453,-1.1355385
-1.4610616,4.2401314,7.766192,0.27882475,-0.447531,-1.2324746
-2.079364,4.235343,7.8571715,0.35552153,-0.73833966,-1.3773463
-2.5821466,4.465186,7.7614036,0.26071578,-0.70212173,-1.3879986
-2.9801826,4.259285,8.643068,-0.0258319,-0.7138393,-1.5488489
-3.3153708,3.626617,9.504981,-0.035419,-0.54233676,-1.4838696
-2.8221653,3.7223852,9.792884,0.22343263,-0.4432701,-1.2409965
-1.8734628,3.7942111,9.730635,0.22236739,-0.5007927,-1.2899972
-1.01574,1.8782512,12.111668,-0.37948927,-0.47203138,-1.5786754
-0.6374562,0.5363012,11.939285,-0.22076954,0.048867565,-1.4348689
-0.49320555,0.4357447,10.482413,-0.21757385,0.07230269,-1.2239528
0.29209262,0.5554548,9.735423,-0.2388785,0.055258963,-1.0716244
0.9391256,0.5847838,9.074024,-0.30492294,-0.035285845,-1.0801463
0.85293436,0.8002619,8.992621,-0.34327134,-0.10772169,-1.2122352
0.45489833,0.50278234,9.016563,0.0039946237,-0.40279123,-1.0748202
0.84814596,1.6190789,8.369531,0.4481968,-0.7884056,-1.0716244
0.9008184,1.8830396,8.2833395,0.27562904,-0.8832113,-1.3869334
0.320823,1.2934675,9.303867,-0.16644266,-0.8161017,-1.6351327
0.22505496,0.51714754,10.741586,-0.09826775,-0.7745576,-1.723547
1.2216414,0.48841715,11.009736,0.14354014,-0.84486294,-1.7448517
1.7633295,0.50757074,11.062409,0.2958685,-0.88108087,-1.9495096
1.9740193,0.6422446,10.271724,0.27349856,-0.6659038,-2.2626882
1.79206,0.7715315,9.826403,0.24899822,-0.59346795,-2.486387
1.0827777,0.57041854,9.165004,0.27456382,-0.7532529,-2.6791942
1.0971429,0.39264908,9.86471,0.27562904,-0.8874723,-2.7644129
0.96306765,0.25857377,10.056246,0.30439034,-0.84805864,-2.7910438
0.7715315,0.33997664,9.428367,0.11477886,-0.46777046,-2.7569563
0.4309563,0.11971009,9.917382,0.16058388,-0.5082493,-2.7814565
-0.33518824,0.37828386,10.032304,0.16058388,-0.4049217,-2.6578896
-1.0875661,0.919972,10.199898,0.21704122,-0.10559122,-2.3660157
-1.7058687,1.3557167,9.088389,0.33421686,0.021171506,-2.1050336
-1.8734628,2.1751323,8.422802,0.19786704,-0.19400556,-1.7650911
-1.9548657,1.6430209,10.985794,0.11158316,-0.49653175,-1.5658926
-2.2038627,1.2695254,11.684901,0.63674307,-0.13754821,-1.1973219
-1.9117701,2.055422,8.944737,0.8732248,-0.11198262,-0.98427534
-1.9213469,2.4528596,8.887277,0.6644391,-0.3953346,-1.1642997
-1.6573862,2.1416135,10.396222,0.26923764,-0.55298907,-1.4306079
-2.1799207,1.3509283,11.68969,0.15312725,-0.054460037,-1.5264789
-1.7010803,2.6635494,8.374319,0.36936954,0.28108835,-1.0716244
-1.9500773,2.754529,7.675212,0.43967494,-0.013981183,-1.1525822
-2.2661119,2.5198972,7.1287355,0.33315164,-0.13009158,-1.087603
-2.586935,2.5198972,8.446744,0.17336668,-0.24513675,-0.9011871
-2.8269536,2.6443958,8.264186,0.23301972,-0.13328728,-0.74992406
-3.0520086,3.008913,7.780557,0.14140968,-0.13009158,-0.5794868
-2.92751,3.5452142,7.7039423,7.99E-04,-0.14713532,-0.38241866
-2.6300306,3.8373067,8.082227,-0.03967993,-0.24407151,-0.26950395
-2.2996306,3.8612487,8.992621,0.009320789,-0.29307222,-0.24926452
-2.4193408,3.6170402,10.084976,-0.07483262,-0.150331,-0.21091613
-2.5103204,3.7606924,9.6923275,-0.024766669,0.12236864,0
-1.417966,4.5992613,10.5207205,0.0838871,-0.20891882,0.11824086
-0.19153613,4.6806645,11.593922,0.22236739,-0.40598693,-0.17256775
-0.7380127,2.7880478,11.167754,0.2639115,0.048867565,-0.534747
-0.6374562,1.9979613,9.582193,0.4705667,-0.038481545,-0.3547226
0.16280572,2.2182279,9.658808,0.5515244,-0.6360773,-0.5006595
-0.39743748,2.529474,8.968679,0.22662832,-0.2632457,-0.72329324
-0.8242039,2.5438392,8.451532,0.27669427,-0.043807708,-0.7967943
-1.1162965,2.5821466,7.277176,0.41517457,0.032889068,-0.6199656
-1.240795,2.9945478,6.745663,0.13075735,0.088281184,-0.6231613
-2.112883,2.8078,7.0425444,-0.1515294,0.23102242,-0.3387441
-2.1894975,3.5978866,6.7648168,-0.2580527,0.033954304,0.020239428
-2.1559787,3.8804023,7.316082,-0.34327134,-0.14926578,0.1256975
-2.1990743,4.1922474,9.23683,-0.4679036,0.014780108,0.3515269
-1.9692309,4.6040497,9.428367,-0.41783765,0.26830557,0.39733192
-2.328361,4.120421,9.974843,-0.41783765,0.24380521,0.35365736
-2.304419,3.626617,10.8182,-0.2772269,0.41317725,0.59546524
-1.9692309,3.9576154,9.922171,0.04447348,0.7029206,0.88946956
-1.7872716,4.1826706,8.345589,0.09453943,0.44300377,0.9001219
-1.7106571,3.7702692,8.748413,-0.11211578,-0.2717676,0.736076
-1.839944,1.9117701,12.921507,0.032755915,-0.45924857,0.7051843
-1.5807717,2.2996306,9.821614,0.5579158,0.19906542,0.88201296
-1.1258733,3.3010056,7.876325,0.23728065,-0.043807708,0.66257495
-1.3317747,2.3235726,9.112331,-0.20905198,-0.0661776,0.19174194
-0.7715315,2.6443958,9.179369,-0.34966275,0.20758729,0.18854624
-0.4309563,2.961029,8.695741,-0.4093158,0.31517583,-0.15019786
-1.3605051,2.280477,8.825027,0.09134373,-0.14713532,-0.23115556
-1.216853,2.4911668,8.350377,0.34593442,-0.20572312,-0.14806738
-0.9247604,3.1477766,8.125322,0.24047635,-0.06830807,-0.2386122
-0.9151836,3.5021186,7.5985975,0.1254312,-0.025698747,-0.3898753
-1.2312182,3.425504,7.675212,0.06790861,-0.18335323,-0.4995943
-1.5089456,3.506907,8.077438,0.045538712,-0.2728328,-0.47189823
-1.3317747,3.875614,8.077438,0.12010502,-0.35698622,-0.3323527
-0.5895722,4.4364557,8.437167,0.057256274,-0.47096616,-0.36324447
-1.1258733,3.7989995,8.78672,0.074300006,-0.33887726,-0.4420717
-1.4993688,4.584896,8.504205,0.06151721,-0.4049217,-0.37283155
-0.75716627,4.7860093,9.86471,-0.038614698,-1.0046479,-0.51983374
-0.8050503,2.8939912,12.55699,-0.31664053,-1.0078436,-0.9022524
-1.7729063,1.1833342,12.988544,-0.42316383,0.026497671,-0.51450753
-0.9247604,3.080739,10.827777,-0.20585628,0.15112993,-0.20558998
-2.1942859,2.0171149,10.49199,0.38534805,-0.2078536,-0.406919
-2.088941,2.7497406,10.25257,0.4652405,0.046737097,0.2450036
-1.0061632,3.9624038,9.634866,0.78374517,0.32582816,0.20452474
-1.4323312,3.913921,6.4870896,0.6260907,0.28321883,-0.09480574
-1.6238673,3.0951042,7.4932528,0.11371362,0.28747976,-0.09161004
-1.4466964,3.0376434,7.732673,-0.009853406,0.49413496,0.14380646
-0.96785605,3.7128084,7.301717,-0.019440502,0.31304535,0.361114
-1.0540473,4.010288,6.573281,-0.177095,0.29280594,0.329157
-0.919972,4.1539397,7.713519,-0.25698745,0.01904104,0.36324447
-0.99658644,4.498705,8.767567,-0.300662,0.10639015,0.24074267
-1.4514848,4.225766,9.783307,-0.12702903,0.22569625,0.33767888
-1.8064252,4.4603977,9.41879,0.047669176,0.28641453,0.55072546
-1.5855601,4.594473,10.161591,0.3512606,0.39187258,0.7094452
-0.623091,4.7046065,9.074024,0.339543,0.15858656,0.57522583
-0.83378077,3.650559,10.25257,0.09134373,-0.099199824,0.07350108
-2.0410569,2.136825,10.923545,0.11584409,0.16497797,0.019174194
-0.96785605,3.2962172,8.225879,0.23301972,0.5228963,0.4452674
-1.5711949,3.1956608,6.956353,-0.22716095,-0.11943925,-0.39520144
-2.0506337,2.4241292,9.663596,-0.62662333,-0.25365862,-0.16830681
-1.8974048,2.529474,10.410587,-0.3581846,0.10639015,0.16298065
-2.0219033,3.1908724,8.422802,0.13182259,-0.0054593193,0.48468104
-1.1498153,4.292804,6.980295,0.19467133,-0.24087581,0.55711687
-1.0444705,4.6806645,7.9050555,0.0711043,-0.5955984,0.20452474
-1.5759833,4.1252093,8.302493,0.10625699,-0.38042134,0.111849464
-0.943914,4.8865657,8.187572,0.116909325,-0.22170162,0.09480574
-0.85772276,4.9583917,8.316858,0.10732222,-0.114113085,-0.08628388
-1.2072762,4.9679685,8.446744,0.039147314,0.12023818,-0.19493765
-1.1546037,4.9344497,8.528147,-0.0322233,0.31624106,-0.22795987
-1.264737,4.642357,8.815451,0.013581721,0.19267403,-0.31211329
-1.7537527,3.9911342,9.337387,0.27562904,0.02223674,-0.21517707
-1.9692309,4.134786,8.66701,0.30865127,0.28747976,0.12463226
-1.0444705,4.915296,8.091804,0.2841509,0.080824554,0.29187384
0.694917,5.0302176,9.504981,0.16697527,-0.45818335,-0.023435127
0.521936,3.70802,9.792884,-0.145138,-0.10559122,-0.5230294
-0.6039374,3.1238346,8.599973,-0.41996813,0.1308905,-0.58161724
-0.8146271,3.3249476,8.647857,-0.6457975,0.02223674,-0.53687745
-0.6805518,3.0711622,9.654019,-0.3347495,-0.21531023,-0.48468104
-0.33518824,3.0663738,8.920795,0.065778136,-0.41024786,-0.33767888
0.31124622,4.158728,8.853758,-0.09294158,-0.323964,-0.6338136
-1.0540473,3.5260606,8.22109,-0.25059608,0.1692389,-1.0141019
-1.9405005,3.1860838,7.3926964,-0.32196668,0.109585844,-0.92781794
-2.634819,2.8173769,7.7374616,-0.22503048,-0.22063638,-0.6316832
-2.6060886,3.0424318,8.3072815,-0.13022473,-0.30692026,-0.33128747
-2.6779146,3.0184898,8.005612,-0.20798674,-0.0661776,-0.09480574
-2.2661119,3.4542346,8.31207,-0.35605413,0.1500647,0.15232833
-1.9788077,3.9432502,8.225879,-0.16537742,0.080824554,0.16724159
-2.433706,3.851672,8.662222,-0.2420742,0.17456506,0.17789392
-2.5151088,3.8468835,9.433155,-0.21970432,0.4824174,0.44633263
-2.1511903,3.9043443,9.303867,-0.1515294,0.37056795,0.5091814
-2.5007436,3.3010056,10.434529,0.018907886,0.38974214,0.54966027
-2.4672248,3.3824084,9.074024,-0.06737599,0.39932922,0.6604445
-1.7250223,3.6122518,10.597335,-0.38801113,-0.19826649,0.47828963
-1.816002,1.2455834,13.433866,0.22449785,-0.08641703,0.32383084
-1.6334441,1.6621746,8.983045,0.4290226,0.27682742,0.59440005
-0.7092823,2.754529,9.126697,-0.06311506,0.09360735,0.2897434
-1.4466964,2.007538,8.762778,-0.2612484,0.29067546,0.1448717
-1.0779893,2.0649989,8.983045,-0.26018316,0.07336792,0.2386122
-1.0205284,2.2182279,8.968679,-0.0055924733,-0.036351077,0.23328604
-0.943914,2.6539726,8.710106,0.026364516,-0.0789604,0.15445879
-1.0013748,2.6300306,8.22109,0.021038352,0.045671865,0.04580502
-0.9487024,3.080739,7.047333,-0.05033226,-0.08109087,-0.08095771
-1.1306617,3.2052376,7.3926964,-0.23461758,-0.19720127,-0.32170036
-1.5807717,3.4302924,7.4932528,-0.3038577,-0.24726722,-0.29720002
-1.6867151,4.1491513,8.154053,-0.26337886,-0.16843997,-0.29506955
-2.1033063,4.297592,8.7771435,-0.1259638,-0.38787797,-0.30252618
-2.1894975,4.297592,9.437943,-0.09294158,-0.52316254,-0.3845491
-2.2996306,3.5021186,10.645219,-0.21863908,-0.6179683,-0.38561437
-2.6922798,3.4302924,11.95365,-0.045006096,-0.45711812,-0.18535055
-1.5759833,3.4302924,11.177331,0.14567062,-0.072569,-0.013848029
-1.240795,1.8495208,11.057621,-0.123833336,-0.13967869,-0.061783515
-0.521936,1.6573862,11.565191,-2.66E-04,0.007323477,0.052196417
-0.49320555,1.4036007,10.549451,0.30758604,-0.09387366,0.027696058
-0.095768064,1.3365631,10.659584,0.5344807,-0.053394806,0.098001435
0.10055647,1.9213469,9.423578,0.72622263,0.33648047,0.040478855
-0.49320555,2.831742,6.740875,0.545133,0.1756303,-0.219438
-0.7092823,2.6443958,7.498041,0.22236739,0.12876004,-0.39839715
-1.5568297,2.3331497,8.067862,-0.048201796,0.33541524,-0.33980933
-2.184709,2.3666685,7.751827,-0.1355509,0.38761166,-0.069240145
-2.0506337,2.4959552,7.219715,-0.02157097,0.15539087,0.44100648
-1.1162965,4.173094,6.989872,-0.16537742,0.07656363,0.49533334
-1.1306617,4.120421,6.9850836,-0.5201,0.24806614,0.24606884
-1.7824832,3.6697125,8.2115135,-0.6170362,0.18415216,0.37496203
-1.5951369,3.5930982,9.035717,-0.42422906,0.15219517,0.48042008
-1.5376761,3.2004492,10.008362,-0.39333728,0.2853493,0.61463946
-1.3461399,3.2674868,11.378444,-0.23674804,0.3758941,0.64659643
-1.9405005,3.1621418,10.597335,0.05512581,0.76150846,0.6604445
-1.9979613,3.3584664,10.017939,-0.15898603,0.0115844095,0.5155728
-1.8447324,2.3187842,13.476961,-0.19839965,-0.122634955,0.40904948
-1.4514848,3.1573534,10.25257,0.35445628,0.30345824,0.42289752
-0.83378077,3.1142578,10.563816,0.3129122,-0.025698747,0.20452474
-0.919972,2.2948422,8.848969,0.41197887,0.31943676,0.10758854
0.033518825,2.7688942,8.04392,0.15525772,0.020106273,-0.030891757
-0.20111294,2.9753942,8.963891,0.047669176,-0.1790923,-0.45698497
-1.4083891,3.5835214,7.6800003,-0.022636201,-0.004394086,-0.51024663
-1.441908,4.369418,8.173206,-0.2804226,-0.17376614,-0.66683584
-2.7401638,3.1717186,9.313444,0.3193036,-0.35592097,-0.69985807
-3.0855274,3.5835214,9.121908,0.49826273,-0.2717676,-0.3259613
-2.529474,4.8099513,8.528147,0.6569825,0.06804176,-0.056457352
-1.7393875,5.044583,8.623915,0.45991436,-0.17376614,-0.30785236
-2.3810337,3.9043443,11.048044,0.87429,-0.5636414,-0.42609322
-2.4432828,2.9083564,9.639654,1.3195574,-0.49440128,-0.20239428
-1.4036007,3.2674868,9.040505,0.8529853,-0.15778764,-0.16617635
-0.98700964,2.658761,7.86196,0.57282907,0.09893352,-0.18748102
-0.40222588,3.2291796,8.149264,-0.062049825,0.1436733,-0.28228676
-1.3605051,3.482965,7.5124063,-0.056723658,-0.08641703,-0.45591974
-1.417966,2.5677812,8.470686,-0.11211578,-0.51251024,-0.3962667
-0.98222125,2.9945478,8.748413,-0.17283405,-0.20039697,-0.2418079
-1.2982559,3.233968,8.470686,-0.23355234,-0.019307349,-0.17469822
-1.1258733,2.48159,7.243657,0.20212796,-0.12902635,0
-0.6853402,2.8508956,5.155315,0.5099803,-0.6722952,-0.019174194
-1.3078327,3.9336734,5.2367177,0.04127778,-0.8789504,-0.090544805
-2.3762453,5.193622,5.954978,-0.8577789,-0.33461633,-0.113979936
-2.6060886,5.4521956,8.254609,-1.4479179,-0.010785485,0.1193061
-1.8255788,5.581483,11.220427,-0.17070359,-0.08961273,0.283352
-1.9165585,5.5000796,9.960478,-0.038614698,0.007323477,0.3877448
-1.5041572,5.8783636,9.859921,-0.011983871,0.36630702,0.47296345
-1.4706384,5.7203465,9.792884,0.14780109,0.33648047,0.42822367
-1.3988123,5.5096564,10.089765,0.29480323,0.2661751,0.43354985
-1.3700819,5.9118824,11.09114,0.38534805,0.6347457,0.5081161
-1.039682,6.4008985,9.356541,0.53980684,0.8445966,0.34726596
-1.3796587,5.6628857,9.457097,0.3672391,0.13302097,0.037283156
-1.7681179,3.9719806,12.011111,0.48228425,0.18734786,0.16191542
-0.87687635,4.307169,7.6321163,1.0873367,0.55911416,0.48574626
-1.0109516,4.8099513,6.549339,0.73367923,-0.20252743,0.0117175635
-1.8064252,3.8851907,7.7039423,-0.06098459,0.21291345,-0.13315412
-1.8686744,3.7223852,7.2340803,-0.28574875,0.5633751,-0.07137061
-1.7824832,3.3632548,6.525397,-0.22183478,0.16817367,0.08841434
-1.5903485,4.0533834,6.6786256,-0.29214016,-0.18974464,0.08841434
-1.1881226,4.537012,7.378331,-0.39227206,0.053128496,-0.14806738
-1.9117701,4.39336,8.125322,-0.13768137,-0.33674678,-0.2673735
-2.12246,4.642357,8.417415,0.4002613,-0.48374894,0.020239428
-1.6765398,5.2941785,8.024766,0.43434876,-0.2664414,0.11504517
-0.88166475,6.1369376,7.6464815,0.1584534,-0.15672241,-0.11824086
-1.6095021,5.059547,8.364742,0.44713157,-0.5338149,-0.15126309
-0.8098387,5.9358244,7.426215,0.25645486,-0.23128872,0.05965305
0,5.3085437,7.349601,-0.20372581,-0.5146407,-0.27376488
-0.16759412,3.875614,10.770316,-0.58934015,-0.17163567,-0.29613477
0.5315128,3.6697125,9.485827,-0.13342044,0.17776076,-0.3035914
-0.05267244,3.6697125,7.277176,-0.13448566,-0.31331167,-0.54646456
-0.02873042,3.4063504,8.125322,-0.5328828,-0.49120557,-0.5006595
0.22984336,3.9336734,9.356541,-0.6095796,-0.27070233,-0.4836158
-0.49799395,4.292804,8.815451,-0.36670646,-0.0661776,-0.55285597
-1.0109516,4.331111,7.013814,-0.07376739,-0.19720127,-0.5762911
-2.0362685,3.7702692,7.569867,-0.42848998,-0.30585504,-0.7009233
-2.7593174,3.4542346,8.096592,-0.5712312,-0.0661776,-0.45059356
-2.5821466,3.8804023,8.954314,-0.5605789,-0.028894445,-0.2481993
-2.505532,4.2161894,9.006987,-0.3901416,0.058454663,-0.111849464
-2.1080947,4.2640734,9.045294,-0.2580527,0.069106996,0.06391398
-1.9596541,4.546589,8.825027,-0.17283405,0.16178226,0.22795987
-1.6765398,5.0014873,8.652645,-0.14939894,0.09360735,0.22689463
-1.9596541,4.5657425,9.002198,0.015712187,0.0435414,0.18535055
-1.8016368,4.120421,8.805874,0.11051793,0.080824554,0.406919
-1.2743138,4.024653,9.222465,0.022103585,0.30026257,0.470833
-1.0205284,3.803788,9.586982,0.13927922,0.42596006,0.53048605
-1.1785458,4.039018,9.165004,0.21171506,0.46750414,0.55392116
-0.7667431,4.086902,8.2115135,-0.24633513,-0.19933173,0.29506955
-1.2216414,2.8221653,11.172543,-0.6383409,-0.52209735,0.012782796
-1.5616181,2.0602105,11.766304,-0.2420742,0.49093926,0.5390079
-0.7380127,4.158728,8.321647,0.031690683,0.36737224,0.534747
-1.3269863,3.578733,7.8954787,-0.07483262,-0.116243556,0.13954553
-1.6382325,2.7688942,9.3182335,-0.21118245,-0.22383209,0.16937205
-0.87208796,2.2038627,9.922171,-0.1419423,-0.100265056,0.25991687
-0.7092823,2.2517467,10.25257,-0.013049104,-0.02037258,0.21304661
-1.0253168,3.0280666,7.675212,-0.0034620073,0.22995718,0.20026381
-0.9103952,3.4925418,7.421427,-0.04607133,0.12982528,0.12356703
-1.4036007,3.602675,8.31207,-0.015179571,-0.0757647,-0.050065953
-1.1162965,4.1922474,8.383896,0.013581721,-0.060851436,-0.003195699
-1.2503718,4.924873,9.021352,-0.09720252,0.021171506,-0.19493765
-1.816002,4.426879,9.567828,0.095604666,0.031823836,-0.24713406
-1.5855601,4.369418,9.577405,0.19786704,-0.053394806,-0.2066552
-1.7585411,4.0054994,9.524135,0.24580252,0.01904104,-0.22795987
-1.6621746,4.2544966,9.23683,0.30545557,-0.043807708,-0.017043728
-0.7044938,4.8722005,9.097966,0.30758604,-0.3750952,-0.15658925
-1.2360066,2.5965118,11.004948,-0.1643122,-0.14393961,-0.5709649
-0.8146271,2.3523033,10.281301,0.064712904,0.4983959,-0.1256975
0.15322891,3.1190462,7.9050555,0.37895665,-0.46563998,-0.46870252
-0.33518824,1.9213469,9.361329,0.026364516,-0.42303067,-0.7350108
-1.0301052,1.6765398,9.457097,-0.2260957,0.17030413,-0.5315513
-1.3988123,2.9753942,7.8811135,-0.15046416,0.32582816,-0.37602726
-2.088941,3.329736,6.8462195,-0.035419,0.014780108,-0.27589536
-1.9692309,3.5739446,8.206725,-0.23142187,-0.23128872,-0.23648173
-2.3523033,3.2052376,8.872911,-0.24526991,0.039280467,-0.08628388
-1.6334441,4.039018,8.676587,-0.122768104,0.07656363,0.06817491
-1.9692309,3.5260606,9.126697,-0.101463445,0.069106996,0.033022225
-1.9596541,3.3345244,9.385271,-0.062049825,0.1596518,0.14593692
-1.5041572,3.913921,8.576031,0.1584534,0.36417654,0.32809177
-1.5999253,4.1156325,7.9385743,0.2063889,0.1436733,0.33980933
-1.5472529,4.120421,7.9625163,0.14140968,-0.031024912,0.33448318
-1.264737,4.0198646,9.074024,-0.04394086,-0.036351077,0.29400432
-1.8782512,3.6553473,9.7402115,-0.06418029,0.28747976,0.32489607
-2.3810337,3.6170402,8.710106,-0.26657456,0.21184821,0.55711687
-1.9596541,3.0615854,9.850345,-0.2836183,-0.24726722,0.5560516
-1.8782512,2.6300306,10.9426985,-0.17816022,-0.26431096,0.59546524
-1.4706384,3.0520086,9.946113,0.015712187,0.02969337,0.60824805
-0.9391256,3.435081,8.465898,-0.13981183,0.031823836,0.38241866
-1.2360066,2.9466639,9.131485,-0.3773588,-0.018242115,-0.006391398
-1.7441759,1.9835961,9.917382,-0.37522835,-0.085351795,-0.001065233
-1.2743138,2.3092074,9.074024,0.042343013,0.10212921,0.20132904
-1.1115081,3.1812954,7.8906903,-0.10998531,-0.018242115,-0.004260932
-1.7058687,2.9562407,7.665635,-0.13128997,-0.16204858,-0.09587097
-1.6286557,3.2291796,8.571242,-0.072702155,-0.35698622,-0.06284875
-1.7250223,3.3105824,9.241618,-0.026897134,-0.24620198,-0.11717563
-1.8303672,3.6553473,9.303867,0.09240896,0.014780108,-0.018108962
-1.7345991,4.235343,8.561666,0.18508424,0.0435414,-0.04260932
-1.6382325,4.417302,8.494628,0.14034446,-0.0789604,-0.15552402
-1.7585411,4.158728,9.303867,0.074300006,-0.13967869,-0.23115556
-1.8782512,3.9911342,9.721058,-0.055658426,0.10319445,-0.23009034
-2.2038627,4.498705,9.89344,-0.06950645,0.16391273,-0.12356703
-0.8194155,3.5356374,10.96664,0.12010502,-0.25046292,-0.17895915
-0.11971009,2.6635494,11.92492,0.116909325,-0.27389804,-0.18002439
-0.17238252,1.7824832,11.249157,0.38534805,0.23315288,-0.12463226
-0.009576807,1.816002,8.710106,0.57282907,0.009453943,-0.04580502
0.521936,2.0219033,9.074024,0.499328,-0.35592097,-0.29293907
0.14844051,1.5855601,8.992621,0.35552153,-0.04061201,-0.5517907
-0.694917,1.8016368,7.65127,0.13501829,0.22250055,-0.580552
-1.2982559,2.385822,7.0952168,0.014646954,0.17989123,-0.51450753
-1.7393875,2.7497406,6.9371996,-0.009853406,-0.025698747,-0.40159285
-1.8495208,3.2435448,6.7648168,-0.23674804,-0.11943925,-0.22369893
-1.5280992,3.4925418,8.379107,-0.45299035,-0.1918751,-0.02130466
-1.216853,3.851672,9.006987,-0.34966275,-0.12476542,0.018108962
-1.2072762,3.9336734,9.050082,-0.24420467,-0.01611165,0.025565593
-1.073201,4.1252093,9.083601,-0.15259463,0.19160879,0.018108962
-1.2455834,4.259285,8.316858,-0.027962366,0.2821536,0.015978495
-1.3078327,4.5561657,8.2833395,-0.04287563,0.22782671,0.009587097
-1.6478093,4.187459,8.6813755,-0.04287563,0.24913137,0.012782796
-1.5185224,3.7750576,9.577405,-0.11744194,-0.027829213,0.15339355
-1.6095021,3.5021186,11.000159,-0.05033226,0.15752134,0.23648173
-1.216853,3.5356374,10.779893,0.046603944,-0.01291595,0.29720002
-1.039682,2.5773582,11.340137,0.16377957,-0.23128872,0.098001435
-1.4323312,2.112883,10.606912,0.2905423,0.11704248,0.11717563
-1.2551602,2.5629928,8.07265,0.3384778,0.16497797,0.1225018
-0.7380127,3.032855,8.000824,0.11477886,-0.36444286,-0.22689463
-1.3557167,1.5903485,9.668385,-0.066310756,-0.31011596,-0.54966027
-1.3269863,1.417966,10.070611,-0.080158785,0.1628475,-0.22795987
-0.86729956,1.9740193,9.011775,0.13927922,-0.0011983871,-0.35046166
-1.3078327,1.4371196,9.232041,0.088148035,-0.03422061,-0.42822367
-1.3413515,2.0219033,8.412626,0.095604666,0.07336792,-0.34087455
-1.3078327,2.5246856,7.9146323,0.13927922,-0.1790923,-0.3834839
-1.5424645,2.610877,8.000824,0.103061296,-0.26750663,-0.43781078
-1.8064252,3.1429882,7.8236527,-0.03328853,-0.18761417,-0.42502797
-1.8734628,3.4781766,7.8236527,-0.04287563,-0.2717676,-0.4484631
-1.8112136,3.779846,8.04392,0.017842652,-0.3921389,-0.4900072
-1.5233108,4.197036,8.393473,-0.017310036,-0.4730966,-0.64233553
-1.5233108,4.1491513,9.169792,-0.048201796,-0.44859627,-0.8308818
-1.5855601,4.06296,9.337387,-0.058854125,-0.40918264,-0.9938624
-1.8495208,3.8373067,9.745,-0.07483262,-0.40279123,-1.1099728
-2.0458453,3.70802,9.903017,0.056191042,-0.31650737,-1.0620373
-1.4083891,4.594473,8.801085,0.25112867,-0.39426938,-1.0620373
-0.7188591,4.0581717,9.351752,-0.21118245,-0.5370106,-1.5179571
-0.34955344,1.6095021,13.00291,-1.0527165,-0.8853418,-1.8162223
-0.37828386,-0.99658644,13.491326,0.0018641578,0.19693495,-1.0449936
1.073201,0.16759412,9.625289,0.6026556,-0.042742476,-0.47296345
1.8447324,0.7188591,8.619126,0.59413373,-0.122634955,-0.8713606
1.5951369,0.48841715,7.617751,0.23621543,0.17136936,-1.1547126
1.2599486,0.9487024,7.474099,-0.29853156,0.26404464,-1.4252818
0.83856916,0.08140286,8.911219,-0.4359466,0.109585844,-1.6660244
0.31603462,0.15801731,10.008362,0.103061296,-0.24300629,-1.4093033
1.1019313,1.6525977,9.974843,0.34380397,-0.60305506,-1.7384603
0.9151836,1.2312182,10.4967785,0.19254087,-0.639273,-2.0943813
0.84814596,0.99179804,11.565191,0.467371,-0.64459914,-2.3148844
0.6278794,0.75237787,10.760739,0.6974613,-0.40598693,-2.4214077
0.25857377,0.7044938,9.279925,0.6463301,-0.42303067,-2.504496
-0.3878607,0.65182143,9.797672,0.5856119,-0.5924027,-2.4661477
-0.15322891,1.0684125,9.577405,0.5035889,-0.3985303,-2.4256687
-0.21547815,1.2599486,9.227253,0.42050073,-0.28455037,-2.5034308
0.009576807,1.3126211,9.016563,0.36404338,-0.25152814,-2.555627
-0.019153614,1.4706384,9.078813,0.34593442,-0.05126434,-2.490648
0.12449849,1.9740193,8.480263,0.47908854,-0.08961273,-2.4618866
-0.66618663,1.8590976,8.019978,0.5344807,-0.5679023,-2.5950408
-1.7537527,0.96306765,8.882488,0.73048353,-0.77988374,-2.4182122
-3.1669302,0.9103952,8.686164,0.57708997,-0.5679023,-1.8726797
-3.305794,1.7393875,8.963891,0.13395305,-0.401726,-1.4487169
-3.7175968,1.7106571,10.899603,-0.07909355,-1.2144988,-1.5073048
-3.2387564,0.062249243,15.585056,0.3991961,-1.4371325,-1.220757
-3.0376434,0.5506664,12.566566,0.88920325,-0.23768012,-0.8745563
-1.9405005,2.1080947,8.173206,0.77628857,-0.17376614,-0.80744666
-1.8016368,1.7441759,9.998785,-0.051397495,-0.42516112,-1.41676
-2.6970682,0.7667431,10.899603,0.36936954,-0.21104929,-1.0929291
-2.1320367,2.1655555,9.745,0.8497896,-0.14074391,-0.736076
-2.098518,2.4672248,7.5746555,0.9094427,-0.13967869,-0.973623
-2.4672248,2.3331497,8.029554,0.38215235,-0.3782909,-0.8745563
-1.7776948,2.778471,9.184157,0.4684362,-0.23128872,-0.73714125
-1.5711949,3.0137014,8.230667,0.5749595,-0.2174407,-0.79999
-1.9405005,3.0472202,7.521983,0.38215235,-0.30585504,-0.82129467
-2.098518,3.3824084,7.8236527,0.025299285,-0.115178324,-0.71690184
-2.1990743,3.6936548,7.5028296,-0.10252868,0.08934642,-0.61144376
-2.088941,4.259285,7.7183075,-0.06950645,-0.04167724,-0.55711687
-2.1176715,4.220978,7.402273,0.21491076,-0.36231238,-0.49746382
-1.8207904,4.1826706,8.580819,0.050864875,-0.33142063,-0.52089894
-1.9740193,3.875614,8.90643,0.04447348,-0.27496326,-0.37922296
-1.3461399,4.3023806,9.409213,0.08175664,-0.39000845,-0.34087455
0.22984336,3.9959226,10.961852,-0.4870778,-0.5380758,-0.5645735
-0.033518825,2.831742,13.218388,-0.69479823,-0.025698747,-0.8809477
-1.0109516,1.8303672,10.626065,0.32995594,-0.0033288533,-0.45059356
-0.1388637,2.2661119,9.826403,0.7038527,-0.5508586,-0.44100648
-0.12449849,2.055422,9.879075,0.700657,-0.41024786,-0.5933348
-0.22984336,2.385822,8.499416,0.5163717,-0.036351077,-0.64979213
-0.5410896,2.778471,8.182783,0.2287588,0.07123746,-0.7797506
-0.9391256,2.6156654,8.225879,0.261781,0.013714875,-0.8330122
-1.6238673,2.4480712,7.9768815,0.18295377,-0.01291595,-0.644466
-1.5185224,2.730587,8.364742,0.13927922,0.07549839,-0.329157
-1.1402385,3.6601357,7.8906903,0.12117026,0.12876004,-0.18428531
-1.3461399,3.952827,7.7997108,0.12756166,0.017975807,-0.23435126
-1.7154455,4.110844,8.067862,0.10093083,0.069106996,-0.098001435
-1.4083891,4.7429137,8.029554,0.07536524,0.15219517,-0.05965305
-2.0697873,4.6232033,7.876325,-0.01837527,0.20971775,-0.09480574
-1.7968484,4.7141833,8.326435,-0.08335448,0.026497671,0.17895915
-1.7202339,4.5082817,9.370906,-0.065245524,0.028628137,0.30891758
-1.5424645,4.292804,9.615712,-0.016244804,0.12982528,0.40052763
-1.5616181,4.173094,9.634866,0.0029293909,0.32902384,0.47828963
-1.9261353,4.220978,8.034343,0.009320789,0.49733067,0.5730954
-1.8447324,4.3885717,7.8236527,-0.14620323,-0.055525273,0.51344234
-1.9069817,3.8373067,10.108918,-0.254857,-0.4762923,0.29400432
-2.0697873,3.2052376,11.071986,-0.23035665,-0.42835683,0.3099828
-1.3221979,2.7736826,10.592546,0.021038352,-0.042742476,0.49426812
-1.1450269,3.329736,9.504981,0.05832151,-0.09600413,0.46018067
-1.1737574,3.82773,9.495404,-0.03648423,-0.077895164,0.14913262
-2.1751323,3.3824084,7.948151,-0.18242116,0.14580376,-0.019174194
-2.2709002,3.3824084,7.6560583,-0.332619,0.038215235,-0.013848029
-2.1942859,3.056797,9.706693,-0.37948927,-0.18761417,-0.055392116
-2.48159,2.6683378,10.310031,-0.16537742,-0.11730879,-0.01065233
-2.4672248,2.610877,9.251195,0.11051793,-0.01611165,0.26204732
-1.9979613,3.032855,8.858546,0.12969212,-0.019307349,0.30252618
-1.6095021,3.4733882,8.432379,0.09986559,0.059519894,0.14593692
-1.6867151,3.3728316,7.852383,0.054060575,0.119172946,0.050065953
-1.79206,3.5643678,7.5124063,-0.04287563,0.032889068,-0.019174194
-1.7058687,3.6697125,8.005612,-0.09081112,-0.006524552,-0.08628388
-1.7489643,3.6601357,8.125322,-0.08548495,-0.032090146,-0.18322007
-2.0841527,3.578733,8.576031,-0.062049825,-0.05126434,-0.18322007
-2.1942859,3.7702692,8.7053175,0.043408245,-0.021437814,-0.051131185
-2.2134395,4.594473,8.297705,0.11477886,-0.11943925,0.025565593
-2.2469583,4.699818,8.781932,0.124365956,-0.121569715,0.039413624
-2.3092074,4.7189717,8.815451,0.13288783,-0.0821561,0.08734911
-1.8686744,4.642357,9.524135,0.13927922,-0.12370019,0.10119714
-1.7872716,4.8578353,10.228628,0.2127803,0.005193011,0.11824086
-1.4514848,5.083489,9.56304,0.28841186,0.07656363,0.07882725
-0.8242039,3.8899791,9.471462,0.032755915,-0.06830807,-0.21411183
-0.83378077,2.7880478,10.137649,-0.10359391,0.2533923,-0.18641578
-0.74758947,2.802413,8.968679,0.052995343,0.20652205,-0.15978496
-0.8050503,1.7681179,8.887277,0.14247492,-0.10985216,-0.27589536
-0.6901286,2.5725696,8.585608,-0.035419,-0.053394806,-0.15658925
-1.2216414,3.4781766,7.7949224,-0.06098459,0.11597724,-0.32809177
-1.4945804,4.5896845,7.2580223,-0.29107493,0.0115844095,-0.28761292
-1.9548657,4.158728,8.187572,-0.3230319,-0.010785485,-0.36963585
-2.3666685,4.000711,8.48984,-0.10998531,0.030758604,0.009587097
-2.0602105,4.220978,8.48984,0.03808208,-0.049133874,0.18961148
-1.5807717,4.498705,8.590396,0.1584534,-0.07469947,0.27163443
-1.2886791,4.7285485,8.532935,0.1968018,-0.03422061,0.2556559
-1.1162965,4.7189717,8.949526,0.21384554,0.12982528,0.2481993
-1.0779893,4.876989,8.039131,0.4545882,0.14473854,0.26630825
-1.2120646,4.5418005,8.254609,0.23195449,-0.14500484,0.06284875
-1.6765398,4.024653,9.850345,0.056191042,0.20439158,0.11504517
-2.0362685,4.3742065,8.992621,-0.04287563,0.5729622,0.36857063
-1.5472529,4.9296613,9.179369,-0.07589785,0.2342181,0.28761292
-2.3235726,2.7976246,10.875661,0.05512581,-0.09387366,0.1161104
-2.586935,2.3810337,9.845556,0.22769356,0.35778514,0.44313693
-1.3988123,4.177882,7.8092875,0.21810646,0.40359017,0.59120435
-1.6717514,3.674501,7.8811135,-0.17602976,-0.3175726,-0.25352547
-1.7776948,2.984971,9.519346,-0.42316383,0.07123746,-0.039413624
-1.2599486,3.6361938,8.829816,-0.3454018,0.23315288,-0.033022225
-1.863886,3.0472202,8.437167,-0.19094302,0.047802333,-0.10226237
-2.2517467,3.3010056,7.5746555,-0.07589785,0.005193011,0.113979936
-1.3174095,4.268862,7.1909847,-0.124898575,-0.17802706,0.13102366
-1.5185224,4.0342298,8.647857,-0.1355509,-0.433683,-0.27056918
-2.3139958,3.6170402,8.590396,-0.01837527,-0.20678836,-0.14913262
-1.6621746,4.584896,8.508993,-0.12063764,0.031823836,0.015978495
-1.46585,5.097854,7.9864583,-0.11211578,0.06484606,-0.16404589
-1.8447324,4.608838,8.465898,-0.013049104,-0.27496326,-0.2609821
-1.6765398,4.3358994,9.903017,0.22236739,-0.36550808,-0.15019786
-1.5328877,4.489128,9.519346,0.2649767,-0.12689589,-0.13102366
-1.8016368,4.8147397,9.050082,0.29799893,-0.29094177,-0.16937205
-1.4036007,4.7620673,10.444106,0.19573657,-0.6424687,-0.19919857
-0.31603462,3.6984432,11.407174,-0.07057169,0.061650362,-0.36644015
-1.2264298,2.8939912,9.303867,0.19147563,0.25232708,-0.315309
-1.039682,2.6922798,7.7374616,0.32356453,-0.26857188,-0.25352547
-0.57041854,2.6970682,8.916007,0.18508424,-0.28348514,-0.24926452
-0.50757074,3.2291796,8.451532,0.065778136,0.09467258,-0.32383084
-1.9165585,3.674501,6.7743936,-0.20585628,-0.09706936,-0.37602726
-1.9979613,3.8325183,8.268974,-0.28148782,-0.027829213,-0.22795987
-2.1655555,3.8181531,8.863335,-0.2580527,0.22676148,-0.08415341
-2.2900538,3.8612487,8.461109,-0.09081112,0.22037008,0.17256775
-2.0841527,4.039018,8.292916,0.01997312,0.12449911,0.34087455
-1.5280992,4.3646297,8.168418,0.08175664,0.08615072,0.45591974
-1.192911,4.819528,7.9673047,0.12862688,0.074433155,0.36857063
-1.6813282,4.8003745,8.000824,0.037016846,0.14473854,0.33448318
-1.6867151,4.6279917,8.63828,-0.07802832,0.2342181,0.5123771
-1.5041572,4.5034933,9.370906,-0.12702903,0.23847905,0.5965305
-1.5855601,4.5274353,9.596559,-0.026897134,0.2629794,0.67322725
-1.3126211,4.220978,9.701904,-0.2995968,-0.100265056,0.6061176
-0.51714754,4.000711,11.795633,-0.19520395,0.0019973118,0.54326886
-0.49320555,4.259285,10.5207205,0.043408245,0.14473854,0.37176633
-1.216853,3.7702692,8.369531,-0.066310756,-0.053394806,-0.058587816
-1.3221979,3.2196028,9.495404,-0.19094302,0.06484606,-0.14700216
-1.3844471,3.080739,8.973468,-0.024766669,0.090411656,-0.13315412
-1.1593921,3.1812954,8.278551,-0.080158785,0.14473854,-0.2386122
-1.5089456,2.831742,7.373543,-0.29000968,0.146869,-0.48042008
-2.232593,1.8543092,8.187572,-0.19307348,-0.15352671,-0.3547226
-2.007538,2.4384944,8.920795,0.17017098,-0.14926578,-0.049000718
-1.6867151,3.2483332,8.2593975,0.12117026,-0.004394086,-0.07030538
-2.5725696,3.4685998,7.7470384,-0.080158785,0.1852174,0.043674555
-2.409764,4.187459,7.5985975,0.005059857,-0.15139624,0.20132904
-2.0266917,4.618415,8.724471,0.0870828,-0.28135467,0.19813335
-1.5807717,4.7381253,9.006987,0.017842652,-0.31650737,0.1225018
-1.1976994,4.6950297,10.305243,0.15525772,-0.061916668,0.014913263
-1.1306617,5.1026425,9.093178,0.32462975,-0.025698747,-0.02130466
-1.049259,5.524022,8.465898,0.215976,-0.2856156,-0.27163443
-0.36870706,3.4733882,10.3770685,-0.44979465,-0.36870378,-0.48468104
-0.521936,2.4145525,12.355876,-0.50412154,-0.04487294,-0.4612459
-1.0109516,2.1559787,10.4967785,0.2681724,0.24167474,-0.11504517
0.24420857,3.4925418,8.398261,0.7581796,-0.34207296,-0.07776201
0.41180268,3.530849,7.8715367,0.45032725,-0.21531023,-0.49746382
-1.0013748,3.1429882,8.039131,-0.06950645,0.20865251,-0.6774882
-1.6621746,3.3919852,7.061698,0.05938674,0.22037008,-0.46976775
-1.9788077,3.9336734,6.4392056,-0.0055924733,-0.031024912,-0.33128747
-2.337938,3.6697125,7.593809,-0.2995968,-0.08109087,-0.21411183
-2.256535,3.9043443,8.374319,-0.23248711,0.13515145,0.219438
-1.6382325,4.560954,7.8332295,-0.026897134,0.006258244,0.32170036
-1.4993688,4.7285485,7.699154,-0.11744194,0.09254212,0.2450036
-1.6621746,4.7381253,8.623915,-0.24526991,0.22250055,0.25246024
-1.5855601,4.8099513,8.432379,0.013581721,0.3013278,0.36537492
-1.5280992,4.661511,8.42759,0.10093083,-0.028894445,0.43035415
-1.3652935,4.594473,9.701904,-0.016244804,0.0627156,0.44952834
-1.6525977,4.39336,9.936536,-0.023701435,0.82648766,0.68281436
-1.1019313,5.073912,8.494628,0.0039946237,0.41317725,0.59866095
-0.98700964,3.9671922,11.584345,-0.27829212,-0.49653175,0.23435126
-0.5363012,3.5404258,12.154763,0.11477886,0.33754572,0.25352547
-0.943914,4.2544966,8.039131,0.27775952,0.36417654,0.06817491
-1.4706384,2.9801826,9.601347,0.054060575,-0.3047898,-0.29613477
-1.4131776,2.8125885,9.543288,0.29267278,-0.04487294,-0.06284875
-0.8912416,3.1812954,8.398261,0.32143405,-0.150331,-0.13954553
-1.2599486,3.0041246,8.091804,0.1999975,-0.13861345,-0.29080862
-1.4802152,3.176507,7.0090256,0.20106274,-0.09387366,-0.10758854
-1.1593921,4.1491513,6.980295,0.07323477,-0.3750952,-0.27056918
-1.4993688,3.9282866,7.402273,-0.030092834,-0.33994249,-0.36537492
-1.7202339,4.2305546,8.034343,-0.123833336,-0.06724283,-0.09587097
-1.3365631,4.939238,8.106169,-0.10572438,-0.043807708,-0.17363298
-1.9117701,4.853047,8.249821,-0.009853406,-0.13541774,-0.17682868
-1.3413515,5.2941785,8.959103,-0.0077229394,-0.22809303,-0.111849464
-1.192911,5.2319293,10.041881,0.12117026,-0.24939768,-0.15658925
-1.2982559,5.490503,9.754577,0.36404338,-0.25578907,-0.13421936
-0.8098387,5.3085437,9.284714,0.2127803,-0.589207,-0.44952834
-1.5903485,2.6204538,11.115082,-0.4519251,0.14473854,-0.37602726
-1.2886791,3.2770636,9.883863,-0.095072046,0.43448192,0.07137061
-0.320823,4.0054994,7.852383,0.34913012,-0.49014035,-0.13848029
-0.272939,3.2626984,9.275137,0.095604666,-0.32929015,-0.40585378
-0.24420857,3.482965,8.748413,-0.101463445,0.1500647,-0.46976775
-1.2024878,3.530849,7.924209,0.02742975,0.088281184,-0.630618
-1.7585411,3.7894228,7.421427,0.022103585,-0.006524552,-0.45272404
-1.489792,4.0821137,7.665635,-0.12063764,0.08615072,-0.329157
-1.6238673,4.1012673,7.9912467,-0.122768104,0.096803054,-0.23967743
-1.5711949,4.1826706,7.9050555,0.047669176,-1.33E-04,-0.08628388
-1.3940239,4.2544966,7.814076,-0.0066577066,0.09467258,-0.039413624
-1.4802152,4.283227,7.8092875,-0.11424624,0.14899947,-0.020239428
-1.6095021,4.3263226,8.206725,-0.10465915,0.20226112,0.04260932
-1.7154455,4.4603977,8.110957,-0.10998531,0.17882599,0.13102366
-1.7872716,4.537012,8.532935,-0.16005126,0.2342181,0.21730754
-2.136825,4.6136265,8.719683,-0.25379178,0.28002313,0.329157
-2.2996306,4.608838,9.519346,-0.06950645,0.46643892,0.66257495
-1.839944,5.0787005,8.292916,-0.0258319,0.14154284,0.65298784
-1.7776948,4.3885717,9.749788,-0.30172727,-0.3410077,0.30891758
-1.7058687,2.9562407,12.82514,-0.19307348,0.31517583,0.6029219
-0.9008184,5.1744685,7.665635,0.4716319,0.4238296,0.32809177
-2.5821466,3.4542346,6.6786256,-0.19733442,-0.070438534,-0.20558998
-2.5198972,2.903568,9.639654,-0.38481542,-0.08961273,-0.037283156
-2.5198972,2.4241292,9.313444,-0.0013315412,0.037150003,0.14700216
-2.256535,2.831742,7.5890207,0.04447348,-0.031024912,0.23648173
-2.1655555,3.032855,7.435792,-0.11531147,-0.0661776,0.2386122
-2.03148,3.4781766,7.5985975,-0.11850718,-0.20039697,0.23754697
-1.6765398,3.8612487,8.345589,-0.07589785,-0.25898477,0.12676273
-1.7872716,3.8468835,8.513782,-0.13342044,-0.122634955,0.039413624
-1.8830396,3.8325183,8.815451,-0.11744194,-0.07469947,0.061783515
-1.7633295,4.4699745,8.456321,0.12649642,0.015845342,0.17043728
-1.4754268,4.9823337,8.134899,0.11158316,-0.100265056,0.1256975
-1.5089456,4.7764325,9.639654,-0.051397495,-0.07363423,-0.12995844
-1.9357121,4.7141833,9.442732,0.045538712,-0.013981183,-0.10865377
-1.6867151,5.1984105,9.102755,0.13714875,-0.37083426,-0.19706811
-1.2216414,4.0773253,10.7990465,-0.10785484,-0.42622638,-0.35259214
-0.5602432,3.0711622,11.732785,-0.06950645,0.40039447,-0.23754697
-0.5315128,3.425504,8.139688,0.25432438,-0.11837402,-0.29080862
-0.47884035,2.5582044,9.883863,0.15419248,-0.27070233,-0.44952834
-0.5895722,3.1190462,8.791509,0.215976,0.09893352,-0.21411183
-0.7906851,3.6888664,7.828441,0.30225986,0.08721595,-0.34087455
-1.4562732,4.086902,6.0890536,0.088148035,-0.0022636203,-0.3515269
-1.5855601,4.2161894,7.219715,-0.15685557,-0.18122277,-0.39733192
-2.1894975,3.684078,8.182783,-0.12915951,-0.09706936,-0.3355484
-1.79206,4.110844,8.825027,-0.065245524,-0.02356828,0.002130466
-1.9213469,4.225766,8.513782,0.04127778,0.1596518,0.047935486
-1.9213469,4.6710877,7.766192,0.011451255,0.15858656,0.15126309
-2.0362685,4.9440265,7.665635,-0.17922546,0.1852174,0.15658925
-2.2948422,4.675876,8.067862,-0.19626918,0.08508549,0.2609821
-2.3092074,4.781221,8.643068,-0.122768104,0.12023818,0.43994123
-1.9309237,4.417302,9.299079,-0.094006814,0.33541524,0.5549864
-2.0697873,4.1299977,9.165004,0.029560216,0.5271572,0.6604445
-2.146402,4.5896845,8.005612,0.02742975,0.43874285,0.7062495
-1.5711949,3.779846,10.276512,-0.28574875,-0.29307222,0.42289752
-1.1019313,3.0424318,12.667123,-0.24420467,-0.042742476,0.39200574
-1.2360066,3.3871968,8.623915,0.19360611,0.3268934,0.3675054
-1.9165585,3.3393128,7.5411367,0.04127778,0.024367206,0.18854624
-2.088941,2.7210102,8.302493,-0.3358147,-0.015046417,0.35898352
-1.6047137,2.9418752,8.767567,-0.2836183,0.052063264,0.38561437
-1.6047137,3.0903158,8.168418,-0.12809427,-0.08641703,0.3419398
-1.5041572,3.2148144,8.379107,-0.21757385,0.0030625449,0.2066552
-1.7441759,3.3488896,8.3408,-0.20159535,0.07975932,0.18428531
-1.7968484,3.684078,8.225879,-0.0023967742,0.00838871,0.16830681
-1.6430209,4.120421,8.201937,7.99E-04,0.01904104,0.04580502
-1.9405005,4.173094,8.3312235,-0.05778889,0.09893352,-0.022369893
-2.1416135,4.27365,8.437167,-0.03648423,0.052063264,0.009587097
-1.7633295,4.7620673,8.839393,0.034886383,-0.099199824,0.049000718
-1.4754268,4.7668557,9.437943,0.031690683,-0.100265056,-0.009587097
-1.4610616,4.733337,9.701904,0.03808208,-0.033155378,-0.033022225
-1.5041572,4.6232033,9.6923275,0.11477886,0.056324195,0.001065233
-1.5424645,4.7046065,9.615712,0.22662832,0.074433155,0.06284875
-1.3557167,4.8099513,9.150639,0.39493513,0.039280467,0.1033276
-1.4036007,5.337274,8.3551655,0.5142412,-0.09174319,0.012782796
-1.4754268,5.5862713,7.900267,0.41730502,-0.3111812,-0.112914704
-0.8098387,4.5082817,10.3770685,0.124365956,-0.50611883,-0.2844172
-0.038307227,3.8133647,11.579556,0.011451255,-0.0949389,-0.36217922
0.019153614,3.233968,11.000159,0.07003907,0.27469698,-0.42715845
-0.57520694,2.9131448,9.26556,0.17656237,0.3077192,-0.44952834
-0.7092823,2.7593174,8.182783,0.2095846,0.035019536,-0.43781078
-0.75716627,2.5677812,9.155427,0.11051793,-0.49120557,-0.55285597
-0.8912416,2.146402,10.008362,0.10625699,-0.31863782,-0.5645735
-0.7380127,2.4384944,9.466674,0.06790861,-0.060851436,-0.5081161
-0.7428011,3.0615854,8.480263,-0.014114338,0.13195574,-0.5773563
-1.0779893,3.1860838,7.6847887,0.035951614,0.07123746,-0.6519226
-1.46585,3.1429882,7.2245035,0.086017564,-0.042742476,-0.6412703
-1.8686744,3.4877534,6.2763996,0.0039946237,-0.09600413,-0.4995943
-2.1272483,3.6936548,6.3769565,-0.1643122,-0.16417904,-0.40798426
-2.1272483,4.1252093,7.727885,-0.3123796,-0.15459195,-0.2897434
-2.5198972,3.9043443,7.924209,-0.31664053,-0.11091739,-0.18748102
-2.7210102,3.803788,8.456321,-0.27829212,-0.11091739,0.049000718
-2.2709002,4.0438066,8.734048,-0.16644266,-0.017176883,0.24926452
-1.8495208,4.225766,8.576031,-0.15685557,0.06378083,0.25032976
-1.7585411,4.06296,8.508993,-0.21437815,0.2470009,0.2322208
-2.0506337,4.1491513,7.9433627,-0.2995968,0.37376365,0.30465665
-2.3092074,4.4556093,7.7853456,-0.28787923,0.32050198,0.470833
-2.1655555,4.6279917,8.144476,-0.23461758,0.11065108,0.5635083
-2.12246,4.450821,9.141062,-0.25592223,0.19480449,0.5794868
-2.1176715,4.27365,9.697116,-0.254857,0.4856131,0.6710968
-1.2551602,4.268862,8.882488,-0.11957241,0.10212921,0.71370614
-0.45968673,3.6649241,11.838729,-0.3613803,-0.7596443,0.25885162
-1.1737574,1.5951369,14.396934,-0.20266058,-0.004394086,0.12995844
-1.4802152,1.7633295,9.845556,0.23728065,0.67415935,0.62529176
-0.6374562,3.0615854,7.9625163,0.33208638,0.021171506,0.48148534
-0.9056068,2.1751323,8.662222,0.0966699,-0.25472385,0.061783515
-1.1210849,1.7250223,9.548675,-0.18561685,-0.01291595,0.09161004
-0.7428011,1.9835961,9.461885,0.01677742,0.13834713,0.07882725
-0.89603,2.5773582,7.9050555,0.056191042,-0.052329574,-0.16511112
-1.3269863,2.6396074,8.326435,-0.19839965,0.058454663,-0.29400432
-1.2982559,3.329736,7.885902,-0.011983871,-0.08641703,-0.28761292
-1.4131776,3.602675,7.948151,-0.017310036,-0.12476542,-0.393071
-1.8543092,3.554791,8.364742,-0.10359391,-0.116243556,-0.3131785
-1.9021933,3.803788,8.42759,-0.054593194,-0.14607008,-0.26204732
-1.8495208,4.7189717,8.528147,0.060451973,-0.22063638,-0.20558998
-2.0602105,4.9536033,8.619126,0.012516488,-0.24194105,-0.32489607
-2.2038627,4.661511,9.126697,-0.06311506,-0.26005,-0.34087455
-2.0602105,4.5034933,10.199898,0.02423405,-0.3015941,-0.30146095
-1.4227544,4.307169,10.444106,0.4002613,-0.19933173,-0.20026381
-0.74758947,4.8003745,9.797672,0.48867565,-0.3750952,-0.2897434
-0.17238252,4.048595,10.391434,-0.011983871,-0.65205574,-0.68281436
-0.7428011,2.3666685,12.4947405,-0.26018316,-0.077895164,-0.76057637
-1.3078327,1.5807717,9.064447,0.45778388,-0.0789604,-0.32809177
-0.7667431,1.9452889,8.892065,0.5067846,-0.49120557,-0.30465665
-0.6135142,2.1511903,9.222465,0.08921327,0.1500647,-0.5560516
-1.3174095,2.1272483,7.828441,0.0902785,0.43128622,-0.51663804
-1.9309237,3.0041246,6.338649,0.15632294,0.18628262,-0.33661363
-1.5328877,3.5116954,7.1047935,-0.11424624,-0.033155378,-0.30146095
-2.184709,2.9322984,8.058285,-0.3485975,0.13302097,-0.18428531
-2.2996306,3.0711622,8.125322,-0.23674804,0.02969337,0.08734911
-1.8351556,3.482965,8.576031,-0.22716095,0.15219517,0.2844172
-1.7106571,3.8420951,8.5473,-0.21118245,0.24060951,0.40265808
-1.2695254,4.5082817,8.695741,-0.08868065,0.26404464,0.3834839
-1.6382325,4.5657425,8.2115135,-0.16537742,0.3045235,0.34087455
-1.6238673,4.4939165,8.968679,-0.1387466,0.1308905,0.37922296
-1.7441759,3.952827,10.242993,-0.10572438,0.1852174,0.3962667
-2.0266917,3.8947675,9.845556,-0.04074516,0.38015503,0.5155728
-1.8782512,4.0342298,9.346964,-0.07376739,-0.077895164,0.51663804
-1.5185224,3.104681,11.680113,-0.10039821,-0.5540543,0.3866796
-1.441908,1.9931729,13.132196,0.18295377,-0.39426938,0.3962667
-0.96306765,2.2852654,9.227253,0.39493513,0.26191416,0.5294208
-0.7380127,2.610877,8.494628,0.24899822,-0.019307349,0.2481993
-1.2695254,1.7441759,9.26556,0.12649642,-0.032090146,0.056457352
-0.919972,1.8112136,9.179369,0.20425843,0.118107714,0.14700216
-0.5267244,2.2134395,8.268974,0.24367206,0.0435414,-0.22369893
-0.6757634,2.12246,8.177995,0.1254312,-0.027829213,-0.34087455
-0.545878,2.4911668,7.9864583,0.103061296,-0.12050448,-0.4165061
-0.5554548,2.8413188,7.9673047,-0.07802832,-0.3761604,-0.72116274
-0.7811083,2.6731262,8.805874,-0.26977026,-0.3729647,-0.88201296
-0.86729956,2.9897594,9.074024,-0.25379178,-0.33355108,-0.8937305
-0.66618663,3.4925418,9.11712,-0.07909355,-0.5583153,-1.0929291
-1.3557167,3.5691562,9.442732,-0.123833336,-0.49653175,-1.3006495
-1.4227544,3.6936548,9.380483,0.17975807,-0.60625076,-1.2772144
-1.2599486,3.9091327,9.654019,0.2415416,-0.60944647,-1.4476516
-1.240795,3.6601357,9.212888,0.31823838,-0.53594536,-1.6351327
-1.240795,3.684078,8.810662,0.3619129,-0.561511,-1.6990467
-1.9979613,3.459023,8.067862,0.2671072,-0.63501203,-1.9175526
-2.079364,3.353678,8.264186,0.34699965,-0.68827367,-1.9388573
-1.839944,3.7271736,8.662222,0.34593442,-0.8150364,-2.0879898
-1.2934675,2.7976246,10.592546,-0.0258319,-0.6701647,-2.3819942
-1.3030443,1.8064252,12.61445,-0.44659895,-0.3729647,-2.436321
-2.4959552,0.1388637,10.976217,-0.0066577066,0.052063264,-1.6862639
-1.3892355,0.7092823,9.495404,0.37469572,-0.50292313,-0.92994845
-0.047884032,1.2886791,9.461885,0.5355459,-0.6659038,-0.64553124
1.0779893,1.9644425,8.542512,0.4705667,-0.64886004,-0.69985807
1.8974048,2.079364,8.815451,-0.17496452,-0.5135755,-1.3858682
0.1388637,0.83856916,9.390059,-0.37842402,-0.34207296,-1.6415241
-0.40222588,1.1210849,8.992621,-0.10572438,-0.5625762,-1.3187585
1.1115081,2.9322984,9.064447,0.26284626,-1.1761504,-1.1728215
1.4850036,2.8078,9.528923,0.13182259,-1.1335411,-1.5808058
1.4610616,1.9835961,10.66976,0.02742975,-0.9748214,-1.8823999
2.2278047,1.9165585,10.8229885,0.32995594,-0.70638263,-2.083729
2.337938,1.7729063,9.86471,0.3352821,-0.70212173,-2.504496
1.4466964,1.039682,9.370906,0.29267278,-0.73620915,-2.7622824
1.0444705,1.1019313,8.796297,0.31717312,-0.78094894,-2.7867827
0.4165911,1.3221979,8.552089,0.042343013,-0.8789504,-2.824066
0.033518825,1.0923545,9.620501,-0.031158065,-0.80012316,-2.7431083
-0.21068975,1.2264298,9.615712,0.018907886,-0.6904042,-2.5886495
-0.6039374,1.5664065,9.351752,0.010386022,-0.6328816,-2.445908
-1.240795,1.8351556,9.227253,-0.0322233,-0.59027225,-2.1242077
-1.5951369,2.3427265,9.533711,-0.03328853,-0.43261775,-1.745917
-2.0027497,2.4672248,9.519346,0.034886383,-0.23768012,-1.4849348
-2.3427265,2.8078,9.193734,0.07536524,-0.15352671,-1.1845391
-2.2038627,2.855684,9.212888,0.034886383,-0.47096616,-0.96403587
-1.8447324,2.184709,13.864822,-0.07589785,-0.90984213,-0.9693621
-1.8303672,1.3509283,12.762891,0.828485,0.9053149,-0.25246024
-0.623091,3.7175968,7.267599,1.1650987,0.76896507,-0.019174194
-0.30166942,4.4460325,6.549339,0.828485,-0.5987941,-0.7158366
-1.1115081,1.5520413,11.407174,0.086017564,-0.5338149,-1.2409965
-2.0219033,0.7092823,10.679337,0.3651086,0.67735505,-0.8255556
-1.4227544,2.1176715,7.6800003,0.46097958,0.62302816,-0.48468104
-1.4275428,2.8939912,6.6642604,0.4940018,0.15219517,-0.65937924
-1.5328877,3.032855,7.4070616,0.0029293909,0.052063264,-0.71370614
-1.6095021,3.2435448,8.168418,-0.024766669,-0.047003407,-0.75738066
-1.9117701,3.3249476,8.302493,0.05512581,-0.0757647,-0.7808158
-2.4241292,3.6984432,7.9912467,-0.072702155,-0.036351077,-0.7424674
-2.8700492,4.0342298,8.182783,-0.07589785,0.005193011,-0.5517907
-2.7976246,4.7046065,7.98167,-0.0066577066,-0.14713532,-0.36324447
-2.7497406,4.819528,8.422802,-0.052462727,-0.26857188,-0.37496203
-2.8700492,3.9234982,9.879075,0.08921327,-0.23448442,-0.13528459
-1.9644425,4.2066126,10.242993,0.23515019,-0.24407151,-0.001065233
-1.5951369,4.225766,9.816826,0.3480649,-0.11198262,-0.113979936
-1.1737574,4.498705,9.658808,0.30119464,-0.31331167,-0.16191542
-1.0971429,4.4316673,9.606135,0.24686775,-0.39639983,-0.30252618
-1.2264298,2.4672248,11.134235,-0.17922546,-0.19613603,-0.39733192
-1.3317747,2.4768016,9.409213,0.23195449,0.12449911,-0.07137061
-0.7284359,2.706645,8.508993,0.50145847,-0.2983984,0.009587097
-0.50278234,2.8508956,8.437167,0.40132654,-0.18974464,-0.17043728
-0.7092823,3.0424318,8.403049,0.14460538,-0.006524552,-0.3515269
-1.1115081,2.9418752,8.292916,0.103061296,0.13621667,-0.4356803
-1.8686744,3.1908724,6.884527,0.057256274,0.146869,-0.34939644
-2.1320367,3.5260606,6.8462195,-0.17602976,-0.02356828,-0.26204732
-2.2421699,3.4781766,7.689577,-0.39440253,0.044606633,-0.18002439
-2.3570917,3.4302924,7.9529395,-0.41996813,0.14899947,0.0074566314
-1.9788077,4.120421,8.015189,-0.2388785,-0.02356828,0.2609821
-1.8303672,4.2305546,8.6095495,-0.26870504,-0.018242115,0.2066552
-2.2230163,3.952827,8.992621,-0.31451005,0.17669553,0.25672117
-1.9452889,4.3167458,9.054871,-0.17283405,0.18947832,0.42715845
-1.6095021,4.795586,9.040505,-0.1259638,0.06591129,0.3579183
-2.1655555,4.1635165,10.3770685,-0.045006096,0.30239302,0.37709248
-2.0745757,4.546589,9.812037,0.18934517,0.48667833,0.5688344
-1.9500773,5.1361613,8.868123,0.18508424,0.1500647,0.45911545
-2.2613235,3.3010056,12.19307,-0.12809427,-0.51570594,0.03195699
-2.3427265,0.86729956,13.749901,0.30332512,0.24380521,0.35046166
-1.6238673,1.9883845,8.825027,0.84126776,0.79346544,0.9491226
-0.96785605,4.024653,6.0699,0.74646205,0.2501966,0.690271
-1.5568297,2.6443958,9.586982,-0.10998531,-0.46563998,0.08095771
-1.5759833,1.9069817,10.8948145,-0.116376705,0.2342181,0.15871972
-1.3126211,2.7401638,8.173206,0.21917169,0.28002313,0.4133104
-0.943914,3.5883098,6.8366427,0.2255631,0.119172946,0.36963585
-0.57520694,4.321534,6.8605847,-0.0258319,-0.0949389,0.15445879
-0.7092823,4.177882,7.4166384,-0.11744194,-0.092808425,-0.14380646
-0.95827925,4.225766,8.201937,-0.04713656,-0.26537618,-0.17469822
-1.1498153,4.8386817,8.268974,-0.013049104,-0.022503048,-0.30785236
-1.5807717,5.0254292,7.569867,0.010386022,-0.01291595,-0.29080862
-1.513734,5.3899465,7.6225395,0.064712904,-0.16843997,-0.30465665
-1.5951369,5.3276973,7.7087307,0.012516488,-0.30905074,-0.3419398
-2.0219033,4.5801077,9.346964,0.02423405,-0.3495296,-0.27483013
-1.7872716,4.5322237,9.639654,0.26604193,-0.30372456,-0.08202294
-1.4754268,4.8147397,8.590396,0.38215235,-0.4432701,-0.057522584
-0.83378077,4.2305546,9.7402115,0.10412653,-0.7436658,-0.20026381
0.7858967,3.4159272,11.052833,-0.33901042,0.10852061,-0.21730754
0.15801731,3.080739,8.268974,-0.12702903,0.20332636,-0.4292889
-0.04309563,2.7688942,9.045294,-0.17816022,-0.5679023,-0.62422657
-0.45489833,2.5198972,8.868123,-0.2676398,-0.12902635,-0.6987929
-0.66139823,2.8844144,8.6813755,-0.29320538,0.020106273,-0.6519226
-1.0875661,3.2722752,7.5746555,-0.18455163,0.02223674,-0.68920577
-2.0123265,3.2914288,7.3208704,-0.39440253,-0.15352671,-0.60185665
-2.1894975,3.3010056,7.9194207,-0.5573832,-0.19613603,-0.43994123
-2.0506337,3.530849,9.054871,-0.5595136,-0.12050448,-0.113979936
-2.1703439,3.3824084,9.457097,-0.4093158,-0.23661488,0.06604445
-1.5999253,3.530849,10.156802,-0.16537742,-0.1950708,0.23967743
-1.1737574,3.8804023,9.586982,-0.18881255,0.1980002,0.17682868
-1.3461399,3.7654808,9.294291,-0.20692152,0.24060951,0.15871972
-1.7010803,3.6218286,9.193734,-0.08441972,0.2629794,0.2844172
-1.4850036,3.8085763,8.619126,0.08495233,0.14580376,0.5059857
-1.240795,3.755904,9.155427,0.16484481,0.109585844,0.54007316
-1.01574,3.5116954,9.970055,0.2127803,0.17882599,0.55392116
-0.919972,3.7750576,9.98442,0.3512606,0.34606758,0.54966027
-0.8146271,3.755904,9.414001,0.1904104,-0.01611165,0.37389678
-0.9343372,2.9801826,11.546038,0.06258244,-0.29413748,0.19706811
-1.3557167,1.7872716,12.652758,0.3384778,-0.047003407,0.28548244
-0.7092823,2.304419,9.807249,0.56963336,-0.010785485,0.4932029
-0.57041854,2.0506337,9.457097,0.086017564,0.53994,-0.26950395
-1.5185224,1.9452889,7.2245035,0.07536524,0.47496077,-0.057522584
-0.670975,2.5629928,8.432379,0.30865127,-0.23554966,0.037283156
-0.98222125,2.4768016,8.422802,0.24793299,-0.0054593193,-0.07243585
-1.2886791,2.6396074,7.4070616,0.05193011,0.14580376,0.033022225
-1.2886791,2.6396074,7.4070616,0.05193011,0.14580376,0.033022225
-1.0636241,3.5643678,7.8906903,0.0774957,-0.10985216,-0.07137061
-1.1737574,4.3167458,7.4166384,-0.05778889,0.004127778,-0.111849464
-1.2072762,4.6710877,7.3448124,-0.1515294,-0.053394806,-0.2226337
-1.6047137,4.7285485,7.445369,-0.26870504,-0.16843997,-0.33661363
-1.6142905,4.699818,8.552089,-0.34007564,-0.25685433,-0.29293907
-1.5616181,4.8626237,9.346964,-0.23142187,-0.25152814,-0.24926452
-1.4131776,4.9200845,9.615712,-0.08655018,-0.1950708,-0.2066552
-1.2743138,5.1361613,9.260772,-0.0066577066,-0.1790923,-0.2162423
-1.3700819,4.924873,9.069236,0.07323477,-0.15885288,-0.27163443
-1.5089456,4.7620673,8.959103,0.19254087,-0.09600413,-0.22156847
-1.3844471,4.5896845,9.227253,0.32995594,-0.1854837,-0.14593692
-0.83856916,4.6950297,9.759365,0.3224993,-0.3750952,-0.16830681
0.009576807,3.8564603,11.153389,-0.035419,-0.4699009,-0.43781078
-0.9487024,2.3523033,12.121244,-0.31024912,0.20865251,-0.51983374
-1.1785458,2.12246,9.23683,0.03808208,0.6794855,-0.09161004
-0.7906851,2.385822,7.5890207,0.25112867,0.014780108,-0.052196417
-0.38307226,2.5390508,9.059659,0.12649642,-0.5817504,-0.13528459
0.023942016,2.730587,10.25257,-0.024766669,-0.11730879,-0.3866796
-1.01574,2.682703,8.254609,-0.08335448,0.43767762,-0.5390079
-1.6621746,2.8604724,7.483676,-0.07483262,0.13621667,-0.45272404
-1.5855601,3.032855,8.144476,-0.041810397,-0.10985216,-0.33022225
-1.3605051,3.7415388,8.700529,-0.13448566,0.1980002,-0.27269965
-1.9357121,3.8851907,7.8954787,-0.2708355,0.50798297,-0.32489607
-2.9322984,3.5643678,7.8092875,-0.4519251,0.52502674,-0.15019786
-2.879626,3.6122518,9.030929,-0.15472509,0.23315288,0.2481993
-2.6060886,3.8420951,8.911219,0.11477886,0.19054356,0.51344234
-2.3139958,4.6375685,8.063073,0.057256274,0.25445753,0.6604445
-2.1080947,4.9200845,8.2833395,-0.15898603,0.15112993,0.5869434
-2.2996306,4.4316673,9.41879,-0.19094302,0.15432563,0.58587813
-2.4959552,3.952827,9.845556,0.043408245,0.5527228,0.8372732
-1.8447324,4.2784386,9.040505,0.24580252,0.40998155,0.9970581
-1.4227544,4.1826706,9.323022,0.3001294,0.34180665,0.9789491
-1.6382325,4.2640734,9.606135,0.40345702,0.34287187,0.9448617
-1.240795,4.5082817,8.734048,0.42476168,0.01904104,0.8031857
-1.0109516,4.608838,10.674548,0.09453943,-0.369769,0.49746382
-1.6190789,2.8269536,12.896966,0.23195449,-0.08109087,0.141676
-2.1751323,2.5151088,8.834604,0.5419373,0.5974626,0.6710968
-0.6757634,5.773019,8.868123,0.4002613,0.039280467,0.33661363
-1.1641805,4.8626237,9.457097,0.31397742,0.146869,-0.21411183
-2.5677812,3.7223852,9.11712,0.15632294,0.4536561,-0.38881007
-3.152565,3.080739,8.542512,0.065778136,0.5133092,-0.17682868
-2.03148,3.0951042,9.32781,0.3672391,0.021171506,0.09587097
-1.8830396,2.9658175,8.417415,0.5621767,0.104259685,0.14061075
-1.1115081,4.283227,6.491878,0.12969212,0.038215235,0.2481993
-0.98222125,4.948815,7.4405804,0.02423405,0.023301972,-0.22156847
-1.4850036,4.96318,5.6868277,-0.05033226,-0.2983984,-0.39733192
-1.8255788,5.1984105,7.387908,-0.34327134,-0.36550808,-0.51450753
-1.9596541,5.0493712,8.336012,0.34593442,-0.12796111,-0.35259214
-1.7489643,5.0014873,7.7470384,0.7208964,-0.57003284,-0.43674555
-2.7210102,4.120421,8.110957,0.33208638,0.0030625449,-0.2865477
-3.0998926,4.5418005,7.6369047,0.49293658,-0.022503048,0.039413624
-2.3570917,4.7524905,7.41185,0.5078499,-0.63075113,0.20772044
-2.1033063,4.996699,7.6081743,-0.41677243,-0.47948802,-0.18535055
-2.5151088,3.650559,9.016563,-0.8833445,0.015845342,-0.0969362
-2.0745757,4.8003745,9.11712,-0.584014,-0.35166004,0.13102366
-1.6717514,4.675876,9.926959,-0.45618606,-0.35059482,-0.113979936
-2.0410569,4.225766,9.471462,-0.50731725,-0.0118507175,-0.15339355
-1.6962919,4.144363,8.63828,-0.23035665,0.32263246,-0.049000718
-2.0027497,4.450821,7.627328,-0.32196668,0.5367443,0.08628388
-1.7393875,4.8147397,7.0186024,-0.44659895,0.42063388,0.22476417
-1.3317747,5.3995233,8.412626,-0.41996813,0.095737815,0.08734911
-2.0649989,4.6232033,9.088389,-0.17922546,0.014780108,0.22689463
-1.4227544,5.4234653,9.260772,0.13927922,0.12449911,0.406919
-1.8495208,5.2941785,8.034343,0.5760248,-0.004394086,0.329157
-1.8686744,5.3324857,7.076063,0.40665272,0.028628137,0.13741507
-2.457648,4.0438066,8.475474,0.07323477,0.44300377,-0.004260932
-3.032855,3.626617,8.470686,0.15099677,0.7987916,0.21730754
-1.5089456,4.867412,8.485051,-0.31024912,0.053128496,0.42076704
-1.7681179,2.8604724,10.142437,0.14140968,0.09999875,-0.07350108
-1.3317747,3.329736,8.738836,-0.049267028,-0.25046292,0.002130466
-1.8734628,2.4624364,9.572617,-0.26337886,0.25232708,-0.22156847
-1.5328877,2.6874914,8.2354555,-0.29214016,-0.032090146,0.1193061
-0.98222125,3.6314054,8.566454,-0.08974588,-0.0789604,0.112914704
-0.83856916,4.120421,7.8332295,-0.19200826,-0.39426938,-0.20132904
-1.9309237,3.731962,7.5507135,-0.22183478,-0.323964,-0.26204732
-2.2709002,4.1299977,7.013814,-0.21224768,-0.52955395,-0.028761292
-2.2134395,4.7764325,8.51857,-0.21863908,-0.64140344,0.17789392
-1.7058687,5.3995233,9.528923,-0.0023967742,-0.3953346,0.2865477
-1.3988123,6.1902084,8.767567,0.09880036,-0.114113085,0.26950395
-1.240795,6.420052,8.528147,0.064712904,-0.21104929,0.02130466
-1.5568297,5.7825956,9.558251,0.16484481,-0.40705216,-0.106523305
-1.5472529,5.653309,9.869498,0.4705667,-0.3729647,-0.08095771
-1.4227544,5.8783636,8.99741,0.4450011,-0.08961273,-0.120371334
-1.4754268,5.954978,8.412626,0.34380397,0.014780108,-0.17789392
-1.2791022,5.6964045,8.177995,0.17762761,-0.17163567,-0.27163443
-0.97264445,4.829105,9.174581,-0.038614698,-0.3750952,-0.40159285
-1.0636241,3.7463272,10.329185,-0.22929141,-0.18335323,-0.38881007
-1.3509283,3.2914288,10.434529,0.022103585,0.26404464,-0.16298065
-1.3940239,3.5595794,8.388684,0.38534805,0.095737815,-0.07137061
-0.7667431,3.602675,7.9529395,0.38534805,-0.33461633,-0.13102366
-0.4213795,3.4733882,9.270349,0.05832151,-0.059786204,-0.39839715
-1.6047137,2.7401638,8.048708,-0.08868065,0.5921364,-0.27163443
-1.2072762,3.8229415,6.51582,0.060451973,0.1852174,-0.039413624
-1.3700819,3.7894228,6.6882024,-0.17922546,0.11597724,-0.009587097
-1.3365631,4.235343,7.147889,-0.4902735,0.3247629,0.08628388
-1.8543092,4.0438066,8.2593975,-0.2676398,0.19054356,0.26843873
-1.46585,4.5322237,8.245032,-0.23994374,0.24806614,0.42822367
-1.073201,4.972757,8.556877,-0.23248711,0.28108835,0.40585378
-1.4754268,5.4138885,8.379107,-0.05352796,0.37482888,0.42609322
-1.216853,5.5862713,8.700529,0.13714875,0.256588,0.29720002
-2.1272483,4.3167458,9.275137,0.046603944,0.25126183,0.27269965
-1.8112136,4.6375685,8.523358,-0.2580527,0.09999875,0.4772244
-1.2503718,3.6601357,12.786833,-0.17176883,-0.09067796,-0.0074566314
-2.055422,3.0759506,9.831191,0.2649767,0.7700303,0.1938724
-1.7537527,4.498705,6.5349736,0.22343263,0.63155,0.22582941
-1.8590976,4.3263226,6.803124,-0.10998531,-0.06724283,-0.08841434
-1.9644425,3.37762,8.839393,-0.3294233,-0.17696184,-0.106523305
-1.0971429,3.3584664,10.995371,-0.1259638,-0.092808425,0.028761292
-1.2551602,3.82773,7.421427,0.25432438,-0.018242115,0.050065953
-1.4945804,4.2305546,7.2867527,0.09880036,-0.38255182,-0.16830681
-2.280477,4.110844,7.435792,0.14247492,-0.4784228,-0.18535055
-1.9117701,5.251083,7.0090256,0.11264839,-0.6190335,-0.21837278
-2.5103204,5.097854,7.699154,-0.0034620073,-0.48268372,-0.36324447
-2.4863784,5.490503,7.98167,-0.15259463,-0.27815896,-0.27696058
-2.1320367,5.85921,9.02614,-0.17922546,-0.12796111,-0.35046166
-2.9562407,5.456984,8.825027,-0.022636201,-0.13541774,-0.40585378
-3.2435448,5.275025,9.428367,0.13182259,-0.114113085,-0.2418079
-2.9131448,5.571906,9.423578,-0.0013315412,-0.10452599,-0.10865377
-2.0362685,4.6040497,10.357915,-0.06950645,0.07017223,-0.15978496
-1.0779893,3.2435448,10.7751045,-0.010918639,9.32E-04,-0.07137061
-1.0301052,2.7018566,8.048708,0.31823838,-0.25152814,0.30572188
-0.10055647,3.3871968,8.63828,0.2287588,-0.19400556,0.13848029
-0.82899237,3.3967736,7.6225395,0.01997312,0.09467258,-0.1576545
-1.6238673,3.3824084,6.7887588,-0.108920075,0.15432563,-0.28015628
-1.7058687,3.731962,7.0425444,-0.38481542,0.15432563,-0.1033276
-2.2230163,3.5260606,7.5985975,-0.48175162,0.18947832,0.022369893
-2.328361,3.5883098,7.98167,-0.34646705,0.07549839,0.5091814
-1.5233108,4.3885717,8.528147,-0.3517932,0.02223674,0.6295527
-1.3126211,4.5274353,9.246407,-0.32090145,0.31091487,0.59546524
-0.95349085,5.241506,8.614338,-0.116376705,0.44832996,0.64659643
-0.4309563,5.2606597,9.654019,-0.038614698,0.24487044,0.45059356
-0.46447513,4.6806645,10.9426985,0.35871723,0.34500235,0.40372333
-1.1546037,5.3085437,8.48984,0.33741257,0.43448192,0.3387441
-1.7681179,3.3105824,11.105505,0.046603944,-0.42516112,-0.06284875
-1.9500773,2.36188,10.286089,0.38641328,-0.0949389,0.27163443
-0.08619126,4.225766,8.039131,-0.0023967742,-0.06724283,-0.24606884
-1.0827777,2.8125885,7.8571715,-0.32516238,0.12556434,-0.6199656
-1.0636241,2.6060886,7.7230964,-0.48494732,0.061650362,-0.5762911
-0.86251116,2.6060886,7.909844,-0.4870778,-0.13754821,-0.62529176
-1.6095021,2.1990743,8.959103,-0.4359466,-0.42835683,-0.5059857
-2.0458453,2.831742,9.045294,-2.66E-04,-0.2760285,-0.06817491
-1.417966,4.292804,7.1622543,0.079626165,-0.40066078,0.105458066
-1.6047137,4.5801077,8.623915,-0.10572438,-0.5306192,-0.12676273
-1.8351556,4.8865657,9.169792,0.047669176,-0.2046579,-0.16298065
-1.8590976,5.2319293,8.604761,0.040212546,-0.11730879,-0.27056918
-1.9357121,4.795586,9.649231,0.16377957,-0.24194105,-0.3323527
-2.0458453,4.8482585,9.279925,0.21491076,-0.0118507175,-0.2673735
-1.8686744,4.9296613,9.59177,0.20532367,0.07869409,-0.008521864
-0.3878607,4.7046065,9.169792,0.1872147,0.07975932,0.018108962
-0.7332243,2.831742,10.051457,-0.18135592,0.22037008,-0.32702655
-0.46926352,3.1573534,7.8475947,-0.18561685,-0.025698747,-0.07030538
0.19632454,2.610877,10.66976,-0.04287563,-0.4528572,-0.37815773
-0.30645782,3.3010056,8.015189,0.17230144,0.23208764,-0.26524302
-1.6478093,3.0280666,6.999449,0.0711043,0.07549839,-0.5635083
-2.0362685,2.9658175,6.8893156,-0.09187635,-0.036351077,-0.22156847
-1.9740193,3.1429882,7.86196,-0.28894445,0.11597724,0.030891757
-1.7345991,3.8851907,7.98167,-0.26550934,0.10852061,0.315309
-1.4036007,4.5034933,8.461109,-0.19307348,0.118107714,0.33022225
-1.5759833,4.8578353,8.6334915,-0.1579208,0.34606758,0.30572188
-1.6621746,4.9200845,8.920795,-0.12915951,0.33115432,0.3163742
-1.7250223,4.4843397,9.821614,-0.08441972,0.3471328,0.38241866
-1.7154455,4.072537,10.712855,0.13288783,0.56230986,0.5549864
-1.6915035,4.4699745,8.887277,0.5280893,0.7029206,0.7254237
-1.4706384,4.709395,7.3831196,0.15419248,-0.14287437,0.4324846
-1.6430209,2.3235726,12.461222,-0.19094302,-0.45179194,0.046870254
-0.7284359,3.2531216,8.781932,0.25538963,0.31198013,0.38561437
-0.9008184,3.482965,7.4405804,0.15525772,0.20652205,-0.40052763
-1.5951369,1.8112136,8.882488,-0.4774907,-0.25898477,-0.6551183
-1.2695254,1.2599486,10.957064,0.0018641578,-0.40066078,-0.46870252
-0.8050503,2.4911668,8.364742,0.10412653,-0.121569715,-0.4165061
-1.2743138,3.0615854,7.0186024,-0.008788172,0.07230269,-0.58907384
-1.8351556,3.7463272,7.325659,-0.07376739,-0.6232945,-0.83194697
-2.7976246,3.554791,8.364742,-0.18348639,-0.4986622,-0.8170337
-2.8652608,4.63278,8.6813755,-0.11318101,-0.4443353,-0.49746382
-2.6300306,5.1026425,9.409213,-0.065245524,-0.5178364,-0.64233553
-3.3488896,4.39336,9.428367,0.014646954,-0.3463339,-0.47189823
-3.176507,4.27365,9.385271,0.24260682,-0.28135467,-0.3163742
-3.0998926,4.39336,8.437167,0.22236739,-0.042742476,-0.16298065
-2.961029,4.345476,8.513782,0.325695,0.02223674,-0.047935486
-2.5438392,4.795586,8.158841,0.45778388,-0.03422061,0.028761292
-0.95349085,3.8229415,10.10413,-0.12063764,-0.1950708,-0.37815773
-1.5568297,1.168969,12.288838,-0.19200826,0.2821536,-0.15339355
0.2681506,2.098518,10.8469305,0.12223549,-0.064047135,-0.08947957
-0.4309563,1.8974048,9.721058,0.31717312,0.24913137,-0.41224518
-0.9056068,2.5917234,6.908469,0.24473728,0.6219629,-0.35046166
-1.9165585,3.0376434,6.9132576,0.06790861,-0.4954665,-0.44739786
-2.0171149,2.328361,8.700529,0.16271435,-0.6243597,-0.34726596
-2.232593,2.9083564,8.475474,-0.11211578,-0.17057043,-0.14380646
-2.3139958,3.0041246,8.513782,-0.08335448,-0.24620198,0.1225018
-2.0841527,3.5739446,8.407838,-0.2356828,-0.085351795,0.18748102
-2.1799207,3.4638114,8.278551,-0.30705342,-0.08002563,0.283352
-1.9692309,3.674501,8.566454,-0.25059608,0.038215235,0.3898753
-1.7250223,3.9187095,8.22109,-0.24526991,0.13195574,0.45591974
-1.5903485,4.144363,8.158841,-0.21757385,0.17989123,0.41757134
-2.1320367,4.3742065,8.446744,-0.25059608,0.17349982,0.3643097
-2.0362685,4.3502645,9.208099,-0.16218174,0.24593568,0.43354985
-2.0458453,4.1826706,9.361329,-0.07696309,0.32902384,0.39200574
-1.9931729,3.9384618,9.184157,-0.1259638,0.40678588,0.42396274
-1.8543092,4.0198646,8.99741,0.022103585,0.39932922,0.47828963
-1.6238673,4.110844,8.6095495,-0.11744194,0.3599156,0.3579183
-0.82899237,3.1381998,12.0159,-0.25059608,-0.3953346,0.03195699
-1.0540473,1.7537527,12.322357,0.4908061,0.07975932,0.058587816
-0.9151836,2.4911668,7.9625163,0.4162398,0.28854498,0.04260932
-0.8002619,1.5807717,9.606135,0.21917169,-0.38468227,-0.18854624
-0.21547815,1.513734,10.367492,0.27136812,-0.15885288,-0.28548244
-0.47405192,2.1799207,7.9673047,0.29267278,-0.04806864,-0.51663804
-0.7667431,2.8508956,7.2388687,0.1584534,-0.447531,-0.7424674
-0.8242039,2.7928362,8.240244,0.2639115,-0.96843,-0.8873391
-0.50757074,3.6170402,8.820239,0.21491076,-0.9982565,-0.99492764
-0.670975,3.2435448,9.572617,-0.10998531,-0.61370736,-1.609567
-1.417966,3.0998926,9.816826,0.086017564,-0.60305506,-1.5871972
-1.192911,3.8564603,8.714894,0.28841186,-0.7649705,-1.6404588
-1.3126211,3.875614,8.662222,0.2905423,-0.8214278,-1.8045048
-1.6478093,3.5404258,8.398261,0.24793299,-0.904516,-1.9867928
-1.6478093,3.176507,9.32781,0.22662832,-0.88853747,-2.1497734
-1.5759833,2.802413,9.030929,0.19893226,-0.717035,-2.2381878
-0.50757074,2.7688942,9.735423,-0.10572438,-0.6467296,-2.467213
-0.40701428,1.5807717,10.808623,-0.6351452,-0.29626793,-2.829392
-1.7393875,-0.047884032,11.838729,-0.26870504,0.006258244,-2.3596244
-0.943914,0.5943606,9.644443,0.57282907,-0.41024786,-1.494522
0.7954735,1.7202339,9.155427,0.6388735,-1.1154321,-1.444456
0.57520694,1.1210849,9.931747,0.16484481,-0.81077546,-1.7214166
0.31124622,1.6334441,8.887277,0.41837028,-0.7532529,-1.6393936
0.033518825,2.03148,8.853758,0.15099677,-0.9844085,-1.7895914
-0.038307227,2.3187842,9.260772,0.15419248,-0.7244916,-1.7075685
0.9343372,2.9131448,9.260772,0.13714875,-1.0302135,-2.0325978
-0.4357447,1.9500773,10.415376,0.25752008,-0.7926665,-2.203035
-0.25378537,2.5773582,9.083601,0.028494984,-0.44859627,-2.1902523
-1.1881226,2.055422,9.687539,-0.034353767,-0.1950708,-2.148708
-1.168969,2.8652608,8.853758,0.14354014,-0.10239553,-1.6575025
-1.0636241,3.3584664,8.734048,0.1744319,-0.21850592,-1.5371313
-1.3988123,3.0998926,9.543288,0.23301972,-0.029959679,-1.3240846
-1.5041572,3.6074634,9.649231,0.36404338,0.06484606,-1.0141019
-1.6621746,3.6792896,9.907805,0.41837028,0.2725665,-0.87881726
-2.3092074,3.7223852,9.054871,0.53021973,0.31517583,-0.44100648
-2.079364,4.0821137,8.2354555,0.50252366,-0.19080986,-0.2844172
