accelerometer.x,accelerometer.y,accelerometer.z,gyro.x,gyro.y,gyro.z
0.1950603066,-0.3381713399,0.4640063355,0.1090462059,0.1709810048,-0.08328354359
0.2705961525,-0.3044365358,0.5320674798,0.06138075888,0.2205512822,-0.0544699654
0.3525504322,-0.2387590718,0.3542243568,0.04067739099,0.2439735979,-0.02370492928
0.4015904305,-0.1025716089,0.1498240662,-0.001126967603,0.1896696687,-0.0247951895
0.3506513206,0.242070096,0.2088894187,0.06382044405,0.200590685,-0.1057994589
0.1920779481,0.480802572,0.9299982919,0.3549766541,0.4416855276,-0.286847055
0.0568755873,-0.3207029032,0.7838900313,0.5212073326,0.6271063685,-0.2646826804
0.06542747134,-0.5532613668,0.7086065345,0.5739917755,0.6661702991,-0.1879268587
-0.1191519742,-0.4889376554,1.081540268,0.4003780186,0.6624729633,-0.1476762444
-0.5757498601,-0.05832710128,1.621478335,0.1638153791,0.7910156846,-0.2483186722
-0.8135543711,0.5765218308,1.95767253,0.0529579781,1.006211519,-0.4350231886
-0.7998927793,0.5394546675,2.196979298,-0.1138321087,1.131873369,-0.5765581131
-0.4483320888,0.6741299722,1.819482203,0.2261364907,1.402318597,-0.6662681699
-0.843460849,0.2706222367,2.404211013,0.4847175777,1.802740216,-0.7446092367
-0.6976271676,0.3949368909,5.215500606,0.7554218173,2.998910666,-0.8536192775
-1.798003946,-0.8356821779,-0.554168837,1.130215049,2.713455915,-0.8644826412
-2.115160262,-1.177834404,1.163617078,1.210241199,2.793011665,-1.096492171
-3.111652303,-1.027466732,-0.4232224897,1.1737324,2.438628435,-1.557290435
-3.446062245,-2.466469609,-0.3701823889,1.403995037,2.45447278,-2.13591218
-1.662053799,-5.085510536,-0.8258382447,1.573402643,2.485003233,-1.987372875
-0.7535369786,-5.458144994,-0.6744757169,1.713992953,2.504432917,-1.544272065
-1.075688035,-4.445497061,1.040905475,2.021041155,2.82421279,-1.329799175
-0.8745359324,-4.019147964,1.583936832,2.452295542,3.096482277,-1.123347878
-1.521536198,-2.857905798,2.719855172,2.559462309,3.145402431,-0.9599145055
-2.379185877,-1.676211796,4.14865931,2.313750029,3.102163076,-0.9644693136
-4.11421928,-0.3937012117,1.269827044,1.773672819,2.33689785,-1.210759521
-5.801453989,1.547992828,5.753998995,1.408837438,2.566110849,-1.671307683
-7.165758475,3.642909928,6.348357219,1.314901114,3.410123348,-2.409689903
-7.386506674,5.041394331,5.844641974,1.610014677,4.438971043,-3.21164012
-6.806149503,6.055812781,3.621923254,2.092103243,4.973457813,-3.957386255
-6.192236683,6.520500085,1.886639092,2.611011744,5.080787659,-4.55757618
-5.517203333,6.407762764,0.7356780813,2.988653421,4.924022675,-5.035135269
-4.771114332,5.80755406,-0.7495873642,2.897367001,4.533507347,-5.213312149
-3.931701735,5.357868511,-1.733760898,2.443511963,4.057216644,-5.236461639
-3.134846424,6.546055382,-2.961581276,1.565483809,3.565059662,-5.333808422
-2.134560544,8.642846459,-4.700381923,0.866268754,2.775651455,-5.467461109
-0.3595937749,11.4943985,-5.383024579,0.5671951771,1.600355625,-5.565591812
2.064792011,14.57428175,-4.579413364,0.2349710763,0.2269317806,-5.67711544
5.208279422,18.81507925,-3.346973509,-0.5391436219,-0.7304906249,-6.072615147
8.576168294,20.77811418,-2.149920026,-0.8723609447,-1.47742188,-6.694343567
12.06376608,20.61301013,-1.193615326,-0.629779458,-2.105750322,-7.337395668
15.10887495,15.82214831,-0.08943360269,0.2564938664,-2.729743958,-7.352861404
16.27844831,8.173216439,1.507002938,1.50359273,-3.533360243,-6.493600368
15.03545082,1.484890182,3.919162572,2.413953543,-4.017065525,-4.63972187
11.80136836,-1.282628073,6.066117902,2.761291742,-3.5361166,-2.601929188
8.587963946,-0.6140998663,6.46623015,2.532224894,-2.619825125,-1.253780484
6.251067642,0.5504150374,5.583690944,1.83206749,-1.843308091,-0.8360927105
4.693473458,0.08573474817,3.885603416,0.9712352157,-1.372814536,-1.138845325
3.714012047,-1.858642831,2.953354131,0.2661883235,-0.8351932168,-1.374192715
3.396449196,-3.442232457,2.180557594,-0.02465643734,-0.1434464902,-1.348975301
3.288092281,-4.222982437,1.268383128,-0.09052372724,0.4386207461,-1.183141828
3.215096603,-4.337584968,0.03350494085,-0.17018646,0.6613109708,-1.092843056
3.281494783,-4.278850455,-1.054431896,-0.3177300394,0.5025828481,-1.111438274
3.546212472,-4.158046147,-1.693618419,-0.5168423057,0.1536144465,-1.230515957
4.053378734,-4.111545092,-1.901860042,-0.6667482853,-0.1683103442,-1.387204885
4.830658408,-3.905633228,-1.859709876,-0.7204546332,-0.3493722677,-1.547994018
6.080187929,-3.73854297,-1.637607048,-0.7122419477,-0.38933599,-1.61570704
7.639251016,-3.267576148,-1.118916351,-0.7453840375,-0.2968226075,-1.47030592
9.374389633,-2.010609755,-0.9431078027,-0.7095942497,-0.2455707043,-1.215469003
11.12208378,-1.023539914,-0.5433588353,-0.5476934314,-0.218950063,-1.002509117
12.6386492,-0.9624953709,0.01659662227,-0.3412435949,-0.246144399,-0.62714535
13.01669341,-2.11557235,-0.2200096554,-0.2191864103,-0.3366234303,-0.007674987428
12.44778761,-2.88571092,-0.803221047,-0.1587164402,-0.5683090687,0.7869671583
11.41089838,-2.977467997,-0.9775006323,-0.09278678149,-0.8856701851,1.66420424
11.2219435,-0.9264239405,-0.4396811648,0.03924194351,-1.254499435,2.288243294
11.19245203,2.464506784,0.84990418,0.2445777953,-1.274865389,2.443838358
10.78873328,3.337108533,2.911974657,0.4935371876,-0.6018172503,2.554526567
9.591998949,1.970066732,4.516635713,0.8144455552,1.013251185,3.048166275
8.552205234,1.114551142,3.70375778,1.063166499,3.067401171,3.8155725
8.272199376,2.070966316,1.429597042,1.103260517,4.804737568,4.718382359
8.872076655,4.186340513,-0.4776072831,1.169558287,5.896281719,5.497225285
9.541061958,6.229371943,-3.044754942,1.225954175,5.875014305,5.780996323
9.442079021,6.854975201,-5.327016861,0.9338983297,4.597263336,5.550266266
8.489874743,6.741590813,-5.401663813,0.1723596305,2.893134356,5.128156185
7.031385076,5.905785302,-4.866295831,-0.6680640578,1.405232787,4.736708641
5.79768733,5.169363708,-4.138741727,-1.220958829,0.3685235679,4.579890728
4.542041372,4.843858081,-3.483726789,-1.388387203,-0.1435435265,4.730402946
2.908184033,5.325975243,-3.132289725,-1.213584065,-0.2591537535,5.059530258
1.126585278,6.649898618,-2.939883239,-0.9019422531,-0.1682726592,5.290697098
-0.6441121428,8.152062007,-2.530017659,-0.6455376148,0.1159926876,5.265199661
-2.447275663,9.443681196,-2.235035765,-0.4747712612,0.5935634971,4.891654015
-3.772605983,10.17204983,-2.425403439,-0.4636444151,1.160890579,4.323093891
-4.43242832,10.67817915,-3.210899736,-0.5700337291,1.542116284,3.683848143
-5.192635863,10.94053946,-4.325158032,-0.6698400378,1.590784669,2.922614098
-6.111331839,10.29385133,-5.725160439,-0.6093113422,1.021172166,2.14190793
-7.369549109,9.251467602,-6.185968855,-0.7005546689,0.06496099383,1.378373384
-8.528333945,8.457944065,-5.675415288,-1.140489697,-0.8140437007,0.6889284849
-9.488485968,8.565345287,-4.029322736,-1.526071548,-1.226399064,-0.01713041961
-10.00870285,8.329258064,-3.114299311,-1.491402149,-1.261103511,-0.6800047159
-9.816325006,8.149489526,-2.369261865,-1.096446633,-1.130946636,-1.24312079
-9.260965498,8.542205234,-1.466986277,-0.687359035,-0.8795334697,-1.851547599
-8.285356379,9.163147514,-0.5394827245,-0.3866390586,-0.5710641146,-2.474761486
-6.609808015,9.96553474,0.08755173446,-0.2240592986,-0.3493604362,-3.048790693
-4.669973925,10.76278285,0.133982354,-0.2333990932,-0.3492832482,-3.555347681
-2.53048177,12.44874038,-0.01818096886,-0.4103470445,-0.5734440088,-4.114109039
-0.5485404757,13.8669144,0.1546592313,-0.6170276999,-0.8152297139,-4.810711861
1.507298998,14.18237619,1.322254565,-0.7284827232,-0.6962864399,-5.393799305
3.472313123,13.13891226,2.320204404,-0.6300175786,-0.1524592936,-5.601772308
4.923630706,11.20492924,2.347825693,-0.2888831496,0.500340879,-5.398208141
6.098747083,9.449482575,1.998852097,0.2682883739,1.068410873,-4.944915771
8.024032424,7.881186965,0.6884288389,0.9056367278,1.166288018,-4.622957706
9.662212887,3.927096872,-1.187249298,1.141918182,0.2885866463,-4.135663033
9.291241979,-1.146943007,-1.964435448,0.7801735401,-1.197820306,-3.042312384
7.080743858,-3.033026802,-1.964815095,-0.01416451205,-2.473926544,-1.997723699
4.804169629,-2.684521408,-1.848387979,-0.6932472587,-3.38062048,-1.401550055
2.825648373,-2.036360866,-1.110233863,-0.9605074525,-3.645642042,-1.210518599
1.593643403,-1.99072432,-0.1189241933,-0.8240171075,-3.306732416,-1.183849216
0.7953881614,-2.77083834,1.145315698,-0.5431078076,-2.516517162,-1.100123167
0.01189209785,-3.087493721,1.598846232,-0.4737890959,-1.452040076,-1.027623653
-0.4527098655,-2.773663334,1.033441715,-0.6841175556,-0.5587574244,-1.142026663
-0.1333756203,-1.869510262,0.1188882452,-1.049141884,-0.0008696152363,-1.498849034
1.459305659,-1.218820494,-0.4317322516,-1.340806007,0.2902412117,-1.937406063
3.697547527,-0.2385579962,-0.792072461,-1.713136911,0.4569106102,-2.385637999
5.958257247,0.6932242565,-1.207395137,-2.14388299,0.7179954052,-2.935683489
8.943554915,-0.7149807457,-2.183914942,-2.355485916,0.8713120818,-2.965028763
12.38110769,-1.941694039,-3.283021262,-2.172890186,0.9582862258,-2.282428265
14.04993405,-2.808507853,-5.241528196,-1.601797342,0.5848505497,-1.467602491
14.3003935,-2.285468314,-6.421682568,-0.8416192532,-0.1842437834,-0.9796433449
13.4840701,-3.418755136,-6.099819096,0.2297261804,-0.8936479092,-0.7088059783
13.38081431,-4.618937565,-3.280443812,1.401046753,-1.009936213,-0.02969579212
13.10485568,-5.304180175,-0.0237684136,2.403258801,-0.4724386334,0.9803729653
12.40581777,-5.268023405,2.427830666,2.972578764,0.4132398069,1.909978032
10.81913544,-5.379118219,2.751818874,2.671822309,1.014085889,2.641840458
8.914036559,-4.915820909,1.855944678,1.573092222,1.133609891,3.200351
7.370493697,-3.14401465,0.7201113866,0.5320152044,1.171355367,3.59796524
6.865237067,-0.430105235,-0.3277265182,0.2046388835,1.337071538,3.945735455
6.713493431,2.209204574,-1.039374028,0.6524306536,1.489355087,4.24504137
6.218875099,3.645977499,-1.118488189,1.421564698,1.738117337,4.456338882
5.704287162,4.085899194,-0.7856088179,1.80293107,1.994408727,4.759922981
4.879682843,4.393336081,-0.6927753437,1.624759555,2.166855574,4.918282509
4.104479976,4.71959165,-1.118766714,1.066063643,2.002067089,4.88756609
3.040167322,5.124669411,-1.448805308,0.3670712113,1.55142498,4.739544392
1.720979743,5.450482497,-1.465420635,-0.1487377733,0.9600890279,4.55704546
0.1452805776,5.85473316,-1.108171085,-0.5435580015,0.5275915265,4.32274437
-1.397446877,6.253955181,-0.8589712835,-0.8227835298,0.3612141609,4.055222034
-2.777109675,6.742524295,-0.9847229848,-0.9299696088,0.3791699708,3.753102779
-3.825280757,7.118157935,-1.20202835,-0.8195989728,0.4358783662,3.451491594
-4.87098808,7.402565828,-1.604064259,-0.6211793423,0.3960792124,3.157962322
-6.234968741,7.983020615,-1.766447362,-0.5251943469,0.3224664629,2.766826153
-7.448322786,9.055496702,-1.747750845,-0.5130969882,0.28891626,2.113052607
-8.044412364,9.609390229,-1.405181563,-0.5617451668,0.289113313,1.247159123
-8.115593102,10.02485202,-1.37072955,-0.7261939049,0.3024185896,0.255466342
-7.80277043,10.08897173,-1.631876687,-0.941057086,0.3099464774,-0.7324582338
-7.060688327,10.16863856,-2.155658569,-1.134709597,0.2336919755,-1.514518142
-6.31966947,10.8928869,-2.432603579,-0.9947883487,0.05603053421,-2.242494822
-5.692978417,10.37259461,-2.483158878,-0.6703606248,-0.2107809037,-2.879962206
-4.653728892,10.6280225,-1.944640614,-0.5399483442,-0.4074909091,-3.391998053
-3.364636592,11.88556523,-0.9765350021,-0.4021631181,-0.5196174979,-3.963198662
-1.752437542,13.56152393,0.337955359,-0.1079048067,-0.5395056605,-4.77879858
0.7260995211,13.73490949,1.851729691,0.2576086223,-0.3379786313,-5.536499977
3.265111219,11.73629237,3.25326939,0.6093419194,0.1556091011,-5.796932697
5.16656794,9.473044068,3.900994755,1.180741668,0.6009601951,-5.551228046
5.970028933,7.775499562,4.281780371,1.767235756,0.8954357505,-5.139582157
6.051124916,6.162438926,3.804723999,1.971385598,0.9556940198,-4.946368694
5.755389573,3.933876157,2.396455284,1.631143808,0.7934206724,-4.868221283
5.521640438,1.278184538,0.7475938523,1.077340841,0.2891389728,-4.71077776
4.947800686,-1.339244279,-0.6943567676,0.3359448314,-0.46470505,-4.313625813
4.084325954,-3.189773361,-1.790320698,-0.4957857132,-1.200107694,-3.793652773
3.541202242,-3.652392626,-2.617247322,-1.200410604,-1.871156454,-3.299753904
3.394358069,-3.411919152,-2.606647602,-1.632816672,-2.374322891,-2.898810387
3.874474412,-2.345040447,-2.287625784,-1.804219127,-2.713187933,-2.609252691
4.497455504,-0.9842202959,-1.915708534,-1.948003054,-2.717102051,-2.54842639
5.501660311,0.2352694761,-1.685782173,-2.104982138,-2.407766342,-2.638597965
6.731280432,0.4142915798,-1.853124068,-2.101763487,-1.862068057,-2.746297121
7.99321,-0.4053407961,-2.453739014,-1.819702506,-1.332021594,-2.624946833
8.816678593,-1.277070439,-3.196238466,-1.460832596,-0.8604140282,-2.297021866
9.616699091,-1.707179181,-3.948635919,-1.071692705,-0.549900949,-1.907076716
10.25401032,-1.90348209,-4.392175221,-0.5463556647,-0.3741330206,-1.548439503
10.7670861,-2.185412195,-4.280637923,0.04827165231,-0.2051753402,-1.125577927
11.23270689,-2.180316333,-3.687001583,0.6113490462,0.01794048958,-0.6081012487
11.54455633,-2.207612921,-2.966349806,1.085179448,0.342918098,-0.1390165389
12.20878128,-2.076489463,-2.172155823,1.473825216,0.7370520234,0.3279235661
13.03971773,-2.061386002,-1.346053666,1.819768548,1.157176256,0.9255210161
13.16413789,-2.597525846,-0.8968173223,1.992437363,1.4949615,1.742962599
12.11260873,-3.113611328,-0.6883791545,1.862133026,1.823055029,2.721378088
10.89202649,-2.222065809,-0.9022349634,1.508773804,2.122275829,3.618999004
9.956787954,0.072258596,-1.279289576,1.142142057,2.327530146,4.293970585
9.390621221,2.739952788,-1.844100803,0.9328915477,2.315356016,4.715783119
8.470279815,4.995870013,-1.782475829,0.9632021785,2.25824523,4.949309349
7.306552847,5.932134964,-1.701346822,1.168337584,2.24533844,5.04807806
5.910571951,5.544191877,-1.734806316,1.329388022,2.227234602,5.164153576
4.892207394,4.846878306,-1.708412814,1.324341655,2.052751064,5.410104752
3.94396442,5.097461086,-1.514488033,1.114978433,1.630498409,5.673947334
2.477185648,6.035726271,-1.327185884,0.5218085051,1.208884478,5.778885841
0.824656926,7.277231476,-1.615701213,-0.2191479355,0.7610381842,5.643350601
-0.8578302968,8.346388063,-2.201184933,-0.7637198567,0.2449582517,5.30126524
-2.242063472,9.037933572,-2.335299389,-0.7772632837,-0.1876278371,4.877135277
-3.59896265,9.331716028,-1.834441871,-0.5058383346,-0.3294368684,4.389153481
-4.739112927,9.324614087,-1.433815244,-0.3214981854,-0.2441239208,3.86149025
-5.559650143,9.48909387,-1.106199785,-0.2527630627,-0.1391362101,3.347506285
-6.380066363,9.934898779,-0.7173176642,-0.3855717778,-0.0006711282767,2.741869211
-7.117796116,10.10738885,-0.9051835841,-0.6837723851,0.07115282863,2.080709457
-7.822835898,9.844639247,-1.276129943,-0.9457337856,0.1908715367,1.444599152
-8.130918681,9.894318931,-1.699599101,-0.9279702306,0.3923757076,0.83891958
-8.225269867,10.54739472,-2.080852335,-0.6810230613,0.5277435184,0.1840311885
-8.395908173,11.24725914,-2.685086933,-0.4607942402,0.4540911913,-0.6789156199
-8.478540863,11.57219837,-3.237752672,-0.4178346097,0.1969750524,-1.735344172
-7.63898389,12.13810324,-3.385192181,-0.5476641059,-0.1390999109,-2.917203426
-5.604688139,12.95162677,-2.836678885,-0.5888665318,-0.4414774179,-4.06902647
-2.916324085,13.20955875,-1.730208759,-0.4346238077,-0.4752164483,-5.081888676
-0.2978711859,12.31012452,-0.7506207989,-0.1806998551,-0.214817822,-5.68656826
1.682975299,10.89245903,-0.2164195219,0.2351950258,0.1533979475,-5.791165352
3.227906985,9.255251797,0.09646657006,0.9219478369,0.3726689219,-5.468726158
4.296053518,8.244760749,0.3757622349,1.677847505,0.2559105754,-5.084629536
4.775186111,6.892881445,0.8916913576,1.973769665,0.0553927049,-4.932979107
4.859204703,4.362342977,0.976137235,1.754096746,-0.1472901851,-4.872541428
4.979263161,1.582770126,0.6625269204,1.272003889,-0.3322327733,-4.665355682
4.924008307,-0.7322592128,0.0657736179,0.849788487,-0.5741024613,-4.256549358
4.587790439,-2.180765246,-0.7039844277,0.3972275853,-0.8588276505,-3.745687485
4.57103775,-2.535266081,-1.380610893,0.006669147871,-1.284774423,-3.225882769
4.56632738,-2.190747711,-1.502511764,-0.3170805573,-1.753207326,-2.893136024
4.882348263,-1.698178713,-1.136919625,-0.6958301067,-1.922268987,-2.749838591
5.554131087,-1.204552315,-1.095866023,-0.9070077538,-1.950453043,-2.696758509
6.585495996,-0.8058481806,-1.042722462,-0.8492423296,-1.970215678,-2.629724026
7.522071913,-0.7631856814,-0.773159963,-0.7034524083,-1.846338272,-2.526643038
8.471269996,-0.8102467078,-0.7495967166,-0.6213399768,-1.667794824,-2.361252308
9.330178735,-1.055935287,-0.7472025149,-0.5740956664,-1.502828717,-2.126124859
10.09711646,-1.088771973,-0.9027198243,-0.5085753202,-1.346623659,-1.879684448
11.00934587,-1.014637646,-1.002409156,-0.2628225386,-1.199072242,-1.647566915
11.36376838,-1.378227797,-1.266193363,0.0252839569,-1.042544842,-1.291512489
11.60300501,-1.013885951,-0.3556228254,0.2512463033,-0.1880423874,-0.9770624042
13.00915542,-0.711703916,0.9435399105,1.044769645,1.197430015,-0.3785950243
14.57158827,-0.8447662325,2.235563442,2.363445759,2.425149918,0.6272571087
14.33080851,-2.603573309,3.256621915,2.912790537,3.454570532,1.798491001
12.46190264,-3.110591104,2.567102066,2.394510984,3.79895854,2.782828808
10.08038978,-1.835512715,1.246303545,1.343449473,3.460471153,3.267466068
8.214083871,-0.312400062,1.292393096,0.3828390837,3.103808165,3.472741604
7.550770769,1.002093222,2.223396327,-0.08120678365,3.415133238,3.76647687
7.305508307,2.366186111,1.831797202,-0.1540767252,3.83062315,4.213037014
6.563327419,3.735193075,0.6757071583,-0.2600491643,3.963692188,4.534180641
5.260646738,4.7271162,-0.744321991,-0.6059001684,3.645130873,4.53283453
3.86927772,4.843902505,-1.843360214,-1.133032203,2.986824512,4.369728565
2.593257667,4.423401549,-2.55945915,-1.666947603,2.207301617,4.208566189
1.486851253,4.143238454,-3.160705965,-2.070534706,1.453742385,4.114767551
0.4026566715,4.252782532,-3.640430386,-2.265049696,0.7617041469,4.044001579
-0.7286603115,4.917617145,-4.209605069,-2.281118393,0.08622162789,3.872348547
-1.874942224,5.619999106,-4.407820533,-2.109504461,-0.4603686035,3.562522173
-2.506377841,5.700567265,-5.018434311,-2.056603432,-1.243159294,3.277181387
-3.092826899,6.028036301,-4.325964673,-2.038143396,-1.972786188,3.030018806
-3.723874977,6.426167604,-2.983015694,-2.014869213,-2.268743515,2.806227684
-4.466256356,6.929605202,-1.861723846,-1.984885812,-2.118489265,2.614909649
-5.263555319,7.530595996,-1.265223057,-1.910194516,-1.662305713,2.449550152
-6.333138023,8.480489075,-0.8604723357,-1.68674612,-0.9659366012,2.215325832
-7.367382287,9.639669632,-1.35669138,-1.3199507,-0.288179934,1.789021373
-8.115501332,10.45139635,-1.929511434,-0.7991161942,0.3067652881,1.093443751
-8.2198683,10.56229301,-2.530321318,-0.2489763945,0.7038758993,0.2789127529
-7.520548649,10.95883266,-2.770285382,0.1205209121,0.7841191888,-0.4985533655
-6.727889036,11.82646188,-2.90818374,0.2743682265,0.6087144613,-1.318669319
-5.799366662,12.59575933,-2.735021176,0.3543908298,0.3822056055,-2.371608734
-4.306709937,12.87188863,-2.380907587,0.5750066042,0.1463996768,-3.518717051
-2.420019408,11.29923132,-1.498306421,0.9074889421,-0.02546662278,-4.291413784
-1.021409917,8.94129223,-0.5186570864,1.111637354,-0.08309341967,-4.513505936
0.02289922955,7.642355997,0.1730596881,1.155810118,-0.1956129819,-4.342315674
0.911429785,7.942934688,0.7205550387,1.155036449,-0.3813520968,-4.238614082
1.847527563,8.29320943,1.250416241,1.114006042,-0.5534700155,-4.479513168
2.583720608,7.14951052,1.25920482,0.9285880923,-0.6104885936,-4.95660162
3.317629341,4.582099826,0.789736127,0.6829397082,-0.5948265195,-5.252183914
4.226129503,2.258065343,0.2628042565,0.5564813018,-0.5859158635,-5.221336365
4.866115798,0.1167746141,-0.2023345902,0.5973496437,-0.6583589911,-4.936698914
5.210815078,-1.75643801,-0.3250312878,0.6421430707,-0.7089855671,-4.378662586
5.506978876,-2.985219926,-0.6406485583,0.6746895909,-0.8051993251,-3.659886837
5.718831236,-3.243224966,-1.023559788,0.6178000569,-1.174360156,-2.9703269
6.022730011,-2.827719918,-1.291713004,0.2146912813,-1.625546932,-2.478236437
6.366960213,-2.161086147,-1.736561927,-0.393630296,-2.20753336,-2.226556063
7.181232523,-1.243064124,-1.964740276,-0.8896724582,-2.896037817,-2.214431524
8.20611976,-0.3356020739,-1.568551339,-1.226129293,-3.412030935,-2.207010269
9.41020855,0.4916600661,-0.6769801009,-1.31426847,-3.506751299,-2.24571991
10.53642207,0.7400982358,0.002512859604,-1.185311317,-3.119335651,-2.29947567
11.46373332,0.1619610788,0.3846279706,-0.8656959534,-2.288000584,-2.212212086
11.8936176,-1.255147361,0.2433437692,-0.4140547812,-1.311890244,-1.797592521
11.84239361,-2.848991839,0.1371300044,-0.03384705633,-0.2810771763,-0.9414089322
12.01641747,-3.240085499,-1.046453465,0.3663349152,0.3304649591,-0.04087514058
12.65144789,-2.213562184,-1.666240437,0.5460219383,0.3229902983,0.7836031914
13.05315121,-0.6172498548,-1.29593296,0.6317349076,0.08236692101,1.436680794
12.32280397,-0.3080442049,-0.4428898977,0.7965067625,0.01463738922,1.921630502
10.62731406,-1.346363171,0.2480008012,0.8779049516,0.3515402973,2.523129463
9.16927038,-1.6171745,0.4127978341,0.8459630609,0.9562730789,3.232294798
8.122208721,-0.5881424183,0.5006932674,0.7413384914,1.740299582,3.881650686
7.714327592,1.479641176,-0.06413607982,0.5427999496,2.439705849,4.389033794
7.12431412,3.509154953,-0.915644334,0.3443177938,2.902595043,4.705626965
6.38032706,4.81725649,-1.400884742,0.3446483016,3.254532337,4.93355751
5.320850739,5.268620201,-2.032359668,0.4871881902,3.547103167,5.116145134
4.099357811,5.147947995,-2.800999377,0.557954967,3.628706932,5.28893137
2.847599508,5.358595071,-3.84602427,0.4800606668,3.2864995,5.335072517
1.425458919,5.763899627,-4.751972117,0.2802988887,2.536334038,5.203668594
0.03713935183,6.017884325,-5.111885917,-0.0007861886406,1.554486275,4.939456463
-1.343544022,6.281482654,-4.69894283,-0.2199927121,0.5709557533,4.576668739
-2.70617619,6.491181636,-3.77715707,-0.4710818827,-0.1011788696,4.075269699
-4.186088,6.925825683,-2.720086642,-0.7694010139,-0.4188626707,3.458040237
-5.352088758,6.707462334,-2.304745553,-1.040274262,-0.4476368129,2.926932335
-6.42173459,6.949655472,-2.244273257,-1.145061374,-0.3716730773,2.568107605
-7.81038149,7.579653749,-2.222826272,-1.043869019,-0.2073277831,2.125861645
-8.878873476,8.318646069,-2.518111241,-0.8601081967,-0.1127995327,1.568141699
-9.523474863,8.970294453,-2.757220733,-0.690852344,-0.05133296549,0.7932563424
-9.320935106,9.28801308,-2.928349453,-0.5448759794,-0.04291285574,0.02317988873
-8.384658465,9.773367908,-2.341114213,-0.2876158059,0.03080842271,-0.6098744869
-7.649405331,10.17840592,-1.899929366,0.02297778055,0.1216572672,-1.236664891
-6.696693687,11.18234565,-1.819471681,-0.001961133676,0.1235127002,-1.882995605
-5.376327127,12.39339668,-1.99388483,-0.2061509043,0.04445428029,-2.704455376
-3.364149101,13.4174954,-2.051585908,-0.1373822391,-0.2054751366,-3.563184023
-1.369898945,13.04565063,-1.474122705,0.168542102,-0.3659654856,-4.326775074
-0.05946282732,10.37159158,-0.9220195681,0.5241730809,-0.2785514593,-4.726437092
0.9957686949,8.05655113,-0.631521249,0.8746134639,-0.2077855021,-4.615929127
1.948813516,7.247918287,-0.2148912894,1.203688502,-0.257989347,-4.291118145
2.555032858,6.858363089,-0.1340358377,1.361781955,-0.4540754259,-4.196430683
2.963124414,5.358164863,-0.2892994647,1.188614011,-0.7784777284,-4.230520725
3.091837888,3.005060353,-0.3786135327,0.7168973088,-1.073094487,-4.233329296
3.278341287,0.7889204267,-0.5782330187,0.1567719579,-1.267358303,-4.111101627
3.453934585,-1.071315811,-0.938492564,-0.3221718371,-1.338778973,-3.791751623
3.620893911,-1.791239274,-1.486550517,-0.629963994,-1.399051785,-3.395845175
3.877261705,-1.907550947,-1.999226483,-0.7664635777,-1.500044107,-3.053907633
4.267030253,-1.679196949,-2.517334996,-0.7766427994,-1.797606111,-2.790548801
4.701534015,-1.329820617,-2.651018074,-0.8363237381,-2.225252628,-2.668941259
5.172443554,-1.19924018,-2.480614454,-1.084917068,-2.625026703,-2.632521629
5.928660566,-1.264530106,-2.192647991,-1.31993854,-2.909213543,-2.60176301
6.954544413,-1.533375104,-1.863997344,-1.442748904,-3.093846321,-2.453304291
7.858182521,-1.929063106,-1.556759195,-1.658420324,-3.238428593,-2.1859231
8.627436709,-2.076212984,-1.066186631,-2.150665522,-3.155141592,-1.939220786
9.187686912,-2.102614669,-1.292587157,-2.843875885,-2.905938387,-1.709044337
9.628213587,-2.043039029,-2.608928699,-3.23573494,-2.743532181,-1.340752244
9.593485973,-1.751708643,-4.029763466,-2.937052011,-2.690056562,-0.8882287741
9.03162775,-1.320169576,-4.834264908,-2.190688133,-2.568599224,-0.4766467214
8.555715288,-0.5313683916,-4.911471482,-1.259281874,-2.277890205,-0.1930492669
8.703579453,0.2690706234,-4.376498343,-0.2375634164,-1.899083972,0.03849663585
9.536240821,1.601716819,-3.28218861,0.6049579382,-1.350840807,0.2067267746
10.60787637,1.705694495,-2.247056458,1.306764483,-0.843947947,0.4154511392
10.97147353,-0.2407610592,-1.296359953,1.898809671,-0.3793600798,0.9397214651
10.25214687,-2.641305366,-0.8533803316,2.116986513,0.05584520102,1.885384917
8.943154517,-2.678067117,-0.4920359137,2.011666775,0.5608640313,2.937269449
7.700591912,-0.570790886,0.445946655,2.00723505,1.493500471,3.801501513
6.873203516,2.195025242,0.6063564126,2.195425272,2.704171896,4.477112293
6.314541459,4.549208195,0.2234562887,2.599451065,3.76338315,5.012904167
5.576885356,5.853291144,0.1236371933,2.981949568,4.785075665,5.407888412
4.996667885,5.791278632,-0.6486886569,3.070239067,5.548968315,5.758473873
4.606917457,5.15305321,-1.747669304,3.065879583,5.36383009,6.172930241
3.020289486,5.374259089,-2.515800918,2.556347609,4.342722416,6.257697582
0.8464139998,6.513865177,-3.245475375,1.203040361,2.831152678,5.73134613
-1.217071605,7.427102304,-3.840463421,-0.4648968577,1.002472878,4.757092476
-2.56445009,7.385358088,-3.50209159,-1.780103326,-0.6556357741,3.874450445
-3.513863861,6.687132078,-2.293559266,-2.162617683,-1.578399539,3.429184437
-4.538821241,6.460956594,-0.8782207584,-1.894059062,-1.664736271,3.235035896
-5.813727196,7.075709371,-0.05856091004,-1.437987685,-1.239449501,3.037344456
-7.041179325,7.994533942,0.05071750306,-1.116936803,-0.6620579958,2.673234224
-8.044965322,8.447824823,-0.2590966341,-1.017107129,-0.2110687643,2.215591192
-9.070428313,9.050722911,-0.8433078504,-1.054409385,0.01540020667,1.639618635
-9.820769711,9.841644156,-1.341688165,-1.125949979,0.07172159851,0.9221644402
-10.15810781,10.28889342,-1.69738201,-1.1114012,0.1331586391,0.08531751484
-9.925636445,10.09058268,-1.918846248,-0.8580073118,0.2040306777,-0.6637300849
-9.421318557,10.18259577,-1.989827663,-0.5013735294,0.1185262129,-1.314941287
-8.545278066,11.2358142,-1.661282814,-0.4464434087,-0.08360306174,-2.041486025
-7.136518352,12.93683603,-1.17530284,-0.8271103501,-0.2611006796,-2.874742508
-5.319650716,14.36895441,-1.123859653,-1.189078927,-0.3433432579,-3.894669294
-2.687508899,15.14993995,-0.9424398403,-1.228073716,-0.271006465,-4.743865967
-0.3575695756,14.95340265,-0.7391995334,-0.7902758121,0.009537333623,-5.339105606
1.55968385,13.40747552,-0.4940168584,0.03116988949,0.3418277502,-5.50706768
3.135341514,12.09440672,-0.1943026749,0.8662033081,0.4467877746,-5.226289749
4.28248092,11.94034428,0.1612058765,1.356860757,0.2279663831,-5.07218504
5.001299637,10.78894137,0.1333154145,1.33590138,-0.1806271374,-5.240959644
5.355243423,7.914936674,-0.3942357569,0.8366248012,-0.7347581983,-5.478348255
5.731251157,4.419368932,-0.9796762228,0.1519632041,-1.285659432,-5.492834091
5.915683011,0.8495546359,-1.375258718,-0.445697695,-1.691860437,-5.131438732
5.602722977,-1.474317935,-1.979139973,-0.9636059999,-1.963530064,-4.512572289
5.506542822,-2.055719647,-3.037012949,-1.31117928,-2.444424391,-3.954277754
5.384481208,-2.029556447,-3.781764272,-1.521016479,-3.11972928,-3.732903957
5.612731745,-2.196661903,-4.01340942,-1.684420347,-3.953820944,-3.717593431
6.216618845,-2.638871417,-3.445057744,-2.044698,-4.601109982,-3.700929403
6.94035339,-2.585160285,-2.907377393,-2.39108634,-4.988648415,-3.583245754
8.020096838,-1.632563793,-2.151105728,-2.568612576,-5.094894409,-3.459507227
9.16965032,-0.4883890816,-1.663390308,-2.681535006,-4.82716465,-3.404584646
9.812205296,-0.9635691376,-2.230243855,-2.757368803,-4.151715279,-3.212328672
10.59572416,-1.128045414,-3.176424635,-2.791345596,-3.296441793,-2.696169853
10.74836503,-1.348810564,-4.970270877,-2.586951494,-2.353454351,-1.998707533
11.08162317,-0.9896931744,-7.682612604,-1.118216515,-1.39103055,-1.030908942
10.86844103,-0.421588751,-9.14665289,1.648066878,-0.7724080086,-0.07056442648
10.54965097,-0.01087386071,-7.610944375,3.383914948,-1.086239338,0.6460989118
11.92211188,1.62671039,-3.012845892,3.265522718,-1.661993742,0.44600752
12.80538173,0.06930149976,1.66996501,2.028918505,-1.567179322,0.1148259863
13.06443833,-3.777597215,3.636096448,0.9589785337,-0.9423505664,0.7345583439
12.15886779,-5.210781176,3.122449884,0.6411209106,-0.3631415963,2.191200256
10.69088198,-2.785681104,1.949755181,0.4775733054,0.02551318333,3.276545525
9.074656745,0.8646832314,0.9718553199,0.3414253891,0.3445780277,3.660794258
7.944298962,3.587669687,0.3504968607,0.4282428324,0.8232008219,3.753217697
7.628828991,4.845730305,0.4943097038,0.9261825085,1.6645329,4.171681404
7.257294018,5.882789041,0.4090364357,1.716637015,2.669159651,4.901569843
6.525743246,6.934156289,0.01244125616,2.302799702,3.596269131,5.468213081
5.448691522,7.472900178,-1.253199149,2.29403019,4.136881351,5.709387779
4.655323468,7.495798239,-2.643388602,1.956095695,3.943607092,5.87957716
3.900011881,7.203579964,-2.565943251,1.658142447,2.950226784,6.246495247
2.192344624,8.40887053,-1.832998979,0.8140714169,1.879743457,6.305159092
0.2334130346,10.15976669,-1.562967694,-0.329541713,1.019592285,5.910536289
-1.450560043,10.53935637,-2.32821966,-1.033465147,0.2472141683,5.498941422
-2.811905679,10.95300498,-1.707080104,-0.7591939569,-0.3620434105,5.247958183
-4.530431014,10.987279,-0.03263648745,-0.25603953,-0.3691073656,4.942389488
-5.880399516,10.99482986,0.4439744781,-0.1523346305,-0.07387588918,4.551209927
-7.342865101,10.86124673,0.4971949039,-0.3512162268,0.2428930849,4.103616714
-9.407880984,11.32575108,-0.01658843897,-0.5020796657,0.6839302778,3.392722607
-10.83337205,12.20781565,-1.345932378,-0.5505231023,0.9228357673,2.353302479
-11.36101529,12.30999593,-2.997105594,-0.613465488,0.5998099446,1.313351512
-12.14296529,11.77573006,-3.641448623,-0.7580308318,-0.007246826775,0.2408315688
-12.82576635,11.39136015,-3.530268468,-1.04219532,-0.6244410872,-0.9110848904
-12.51499243,12.43299453,-2.857660006,-1.361232281,-0.9151641726,-2.096993685
-10.76530682,14.32011293,-1.844040305,-1.26217854,-0.7991589308,-3.290110111
-7.849979925,16.68285796,-1.160561782,-1.064264774,-0.392687887,-4.649785995
-3.346071008,18.2921192,-0.7661544681,-0.8205271363,0.09702112526,-5.9466362
1.923386229,18.93057726,-0.08826338986,-0.3677171469,0.6301599741,-6.804395199
4.99299475,16.30588927,-0.6759928434,0.2496703565,0.787216723,-7.030835152
6.023620823,13.56990246,-1.501111249,0.4869090319,0.4192322493,-6.848369598
6.502337236,11.98355682,-2.328848021,0.2281751633,-0.3637799323,-6.553761005
6.967866251,11.31895192,-2.268396767,-0.07259114832,-1.216442823,-6.407889366
7.452784442,9.986751716,-1.592259547,-0.2016233951,-1.918015122,-6.434235573
7.892358931,7.699082677,-1.022914184,-0.4122493565,-2.492435455,-6.442101479
8.211970825,4.734772268,-0.7708867573,-0.9949167967,-2.82810545,-6.278208733
8.266177047,1.965043935,-1.306729664,-1.780680776,-2.947202206,-5.919021606
8.185296168,0.2162304291,-2.414347207,-2.316092491,-3.041241407,-5.437847137
8.16397281,-0.5015858323,-3.330442354,-2.554982185,-3.012302876,-4.954845905
8.469069855,-0.6988274833,-3.891221256,-2.454156399,-2.843089581,-4.533812046
9.15156755,-1.012469654,-4.163789659,-2.098755598,-2.646876574,-4.043951035
10.0316278,-0.9060533527,-3.966687124,-1.729910374,-2.58464551,-3.464118004
10.69121516,-0.4773568155,-3.902138372,-1.559649587,-2.658331394,-2.987811327
11.06337557,-0.4446124837,-4.141660245,-1.519241691,-2.845714808,-2.677115202
11.10442537,-0.7339590024,-4.523189372,-1.636986971,-3.000457048,-2.45101881
11.02874849,-2.10302325,-5.01537317,-1.814652324,-2.878365278,-2.121833324
10.93651445,-2.776844302,-5.78368277,-1.754792213,-2.520892143,-1.670901418
10.69774193,-2.737069341,-6.785095609,-1.170954347,-2.197693586,-1.18309176
10.40556399,-2.449840545,-6.56206719,-0.1253758967,-1.812462211,-0.7135306597
10.39789389,-1.957964206,-5.444724372,0.8817776442,-1.187910557,-0.4069224596
11.16918806,-2.332967732,-4.03429994,1.563010693,-0.2650502324,-0.1652111262
13.54007782,-1.462235283,-2.757457465,1.957260609,0.7148770094,0.4751868248
15.11846695,-1.222548575,-2.167432301,2.357433081,1.39686501,1.351276636
14.89071969,-1.682351614,-1.937431998,2.721397638,1.591758013,2.480861425
13.17374626,-1.412464998,-1.565825714,2.784443617,1.580751777,3.604024649
11.64588086,0.6088251408,-0.6120061089,2.518995523,1.678825259,4.548573971
11.1044546,4.122685495,0.6524857111,2.107925177,2.211778879,5.226102829
11.27033724,7.859445673,1.359189042,1.878161907,3.15975666,5.792314529
11.52919626,10.79857196,1.188885959,2.138024569,4.399406433,6.486651421
10.87742279,11.64319089,0.3093906511,2.7460742,5.559812546,7.414645195
9.42761795,12.04640929,-0.7397443078,2.942531109,6.364192486,8.139405251
8.021978414,13.05725572,-2.605267838,2.212257862,6.526782036,8.205791473
6.179083187,14.58302152,-5.063161926,1.057784081,5.370368958,7.618030071
2.730520358,14.9607045,-6.687680944,-0.1669793576,3.058591127,6.736849785
-1.029720064,14.67513866,-6.438926548,-1.38506496,0.6689505577,5.697228909
-4.040611023,13.84746268,-5.516683693,-2.331530094,-1.231264234,4.718833923
-7.258135145,13.15049866,-3.695187228,-2.727661848,-2.101203918,3.822657347
-9.75469711,12.57655895,-1.226011283,-2.41829443,-1.424215794,3.100312233
-11.15842,12.27874855,-1.120251399,-1.645730138,-0.1074285284,2.839461803
-12.28134266,13.30817928,-2.439279988,-0.7449173331,1.0539639,2.397329807
-13.42234225,14.13178933,-3.992314902,-0.003473904449,1.698612928,1.434892178
-13.63892164,13.58559337,-5.910846092,0.40443331,1.594969153,0.3141639829
-13.27920453,12.36168286,-7.273641342,0.4515369833,0.842269361,-0.6020696759
-12.57626201,12.4142115,-7.396545837,0.3109435141,-0.1476703882,-1.577469587
-11.38297227,12.94078155,-6.172386904,0.1703812629,-0.8757024407,-2.648905993
-9.323522784,13.45973879,-4.73506979,0.09711930156,-1.223586202,-3.594575405
-6.598873949,14.72618613,-3.517850885,-0.1183899865,-1.316973567,-4.254498005
-3.871194952,16.81758441,-2.911432805,-0.560223937,-1.297196388,-4.901769161
-0.906101868,18.89336309,-2.257148813,-0.8566477299,-1.099244356,-5.58049345
2.445810267,20.56443168,-1.598800055,-0.6538026333,-0.7441390157,-6.214303017
5.383312749,19.56333741,-1.268498425,0.0007281903527,-0.3919146359,-6.601075649
7.193610943,15.49091261,-1.288810561,0.786228478,-0.2562024295,-6.499689102
7.679673043,10.7875093,-1.436353823,1.362633944,-0.429540664,-5.790036678
7.018668218,7.805538726,-1.454420518,1.678533554,-1.024101853,-4.894991398
5.986611819,7.026429499,-1.367894619,1.550250173,-1.968166709,-4.403789997
5.216823963,6.323415086,-1.454376094,0.86121732,-3.076468706,-4.404411793
4.853813658,4.654035766,-1.488639306,-0.3380477726,-3.961000919,-4.639539242
4.768119534,2.565615627,-1.154423426,-1.441083431,-4.356750965,-4.607757092
4.75334399,1.583794793,-0.9931155501,-2.065786362,-4.109933376,-4.396287441
4.982897134,1.453818752,-1.149011922,-2.298892736,-3.516513109,-4.15925312
5.698737711,2.372858428,-1.81663675,-2.397517204,-2.95671773,-4.025465012
6.849343917,3.080473029,-2.825336238,-2.464452505,-2.555430174,-4.096426964
8.526348324,3.171427557,-3.682259357,-2.316917419,-2.454205036,-4.165750027
10.35534537,2.713735227,-4.004765218,-2.036342621,-2.483053684,-4.024084091
11.70264261,1.748800647,-4.270871731,-1.957219601,-2.695114613,-3.67730546
12.28879765,0.573661473,-5.301578468,-2.37779355,-3.265116215,-3.28558588
12.1490525,-0.5298135634,-7.220753802,-3.060379028,-4.165193081,-3.007824183
11.7769143,-1.631526851,-8.441511402,-3.537596941,-4.814274311,-2.748246431
11.3687906,-2.423429508,-8.796655211,-3.413706064,-4.81535387,-2.285204887
10.81584925,-1.763105651,-8.649119548,-2.548145294,-4.19799757,-1.648801327
10.25408748,-0.2994400427,-8.017976193,-1.167460203,-3.117683887,-1.098603606
10.04111927,0.2806920876,-7.26798317,0.2592926621,-1.842633367,-0.7803071141
10.61716442,-0.1071235732,-6.51616001,1.283863783,-0.6279017329,-0.4027795792
11.22357899,-1.401027073,-6.335498907,1.995376945,0.2212899774,0.2336303443
11.22092643,-2.268571539,-6.387225002,2.476421118,0.4648498893,1.05242002
10.6633814,-2.280110002,-6.054106562,2.783273935,0.1981579512,1.862962484
10.02540849,-1.243686056,-4.805117724,2.858906507,-0.2125571519,2.576472521
9.192934749,0.3966664912,-3.136953041,2.718947887,-0.4370903671,3.201479197
8.223659509,2.416258009,-1.619958286,2.508342743,-0.3363259435,3.698778391
7.223596916,4.658202238,-0.5194926604,2.422453642,0.1839457303,4.019688129
6.496990614,6.361243589,0.08923048133,2.626783848,1.037029386,4.268691063
5.826669679,7.265098555,0.2856412344,3.137394667,2.146906853,4.613693714
5.102118557,7.50582162,0.7633774046,3.721556187,3.59684968,5.139660835
4.955537418,6.81861677,0.3755515147,4.385976791,4.947761059,5.983672142
4.988846398,6.947220938,-0.2204082993,4.584640026,5.817279816,6.947241783
4.505803353,8.591606101,-1.825339696,3.955340862,5.830986977,7.559295654
3.260820828,10.75787988,-3.634210196,2.780975819,4.663048744,7.55301857
0.5467904172,12.7812024,-4.586906934,1.553741932,2.47305274,6.793509483
-2.509659346,13.26684423,-4.043349508,0.1774005741,0.2851502597,5.473297596
-4.662237193,11.69572187,-2.233628236,-0.8745064735,-1.127369761,4.284141064
-6.086109135,10.06124319,-0.2765577643,-1.254694939,-1.54693234,3.627040386
-7.287561731,9.664352238,1.467760768,-0.9120182991,-1.139004588,3.327759027
-8.813616868,10.19883613,1.840463908,-0.4865293503,-0.3915087283,2.911558628
-10.09255953,11.16903024,1.101452006,-0.5402473807,0.1497799903,2.140604258
-10.77983686,11.81441138,0.1062295469,-0.8618242145,0.4183169901,1.243637919
-11.27017591,11.81043195,-1.115271273,-0.8801681399,0.5052342415,0.3122214079
-11.47440552,11.64180557,-2.093681713,-0.5917969346,0.4442991912,-0.6974657178
-10.94163953,11.52606322,-2.704628961,-0.2395027429,0.3052081466,-1.785261631
-9.333851871,12.40390287,-2.760518606,0.04487287626,0.1003391743,-2.849317551
-7.099335746,13.26825994,-2.348908228,0.329325527,-0.1592706889,-3.885295391
-4.625402377,13.52565649,-1.547474064,0.5373950005,-0.4452640712,-4.723086834
-2.53142928,12.72864102,-0.4242959642,0.56753093,-0.567119658,-5.25879097
-0.9913432797,11.34314177,0.3069365359,0.5256084204,-0.5916335583,-5.435283184
0.1339326696,10.6098462,0.6867337254,0.4037688375,-0.5572203994,-5.376304626
1.238365737,10.50565869,0.5170271471,0.3091958165,-0.5121759772,-5.363760948
2.407782442,9.929397259,-0.01314940443,0.3471678495,-0.5706817508,-5.457802296
3.613088206,8.206763319,-0.3924900823,0.4573608041,-0.815631628,-5.50361824
4.416643891,5.661531139,-0.3642234805,0.4354190528,-1.145695567,-5.384949207
4.941099143,2.924070753,-0.06069499946,0.1010513753,-1.381295562,-5.085460186
5.300037668,0.8442150284,-0.02582563839,-0.4946905971,-1.441375613,-4.671350479
5.615217717,-0.5482569826,-0.708558896,-1.072693229,-1.475656152,-4.212046146
6.026712944,-1.211613924,-1.507406258,-1.390754104,-1.529074073,-3.690108061
6.4425424,-1.245536067,-2.266965273,-1.421135187,-1.640778422,-3.124761105
6.951181074,-0.3565811491,-2.577827166,-1.352482438,-1.805467725,-2.623081446
7.395702372,0.7271294487,-2.625030523,-1.190262079,-2.118685484,-2.397498846
7.703092497,0.8450269293,-2.594636554,-1.054644227,-2.541092396,-2.364595175
7.844979341,-0.4311690648,-2.361480709,-1.062225938,-2.925013304,-2.282707214
8.10981861,-1.782332914,-2.190937972,-1.242226958,-3.381267548,-1.958667755
8.467033965,-1.395910169,-2.160871043,-1.649554372,-3.893425226,-1.65766418
8.839351613,-0.5645803409,-2.34222422,-2.140002966,-4.303519726,-1.619271159
9.018687605,-1.117262739,-2.958054271,-2.407339811,-4.471349239,-1.662920833
9.163595257,-2.23331844,-3.17910233,-2.388426065,-4.194746494,-1.472146153
9.317375952,-2.00423905,-3.370767057,-2.068823099,-3.342265129,-1.115477443
9.719536365,-1.840823097,-3.276577785,-1.120999455,-2.095979452,-0.7578325868
11.20328556,-0.4928296944,-2.302887651,0.1119975895,-0.3603472114,-0.1283687949
12.39149347,-0.6009948856,-1.774503243,1.600680113,1.405158043,0.7448560596
12.10215748,-2.094462342,-1.864614307,2.769454956,2.591145039,1.924648166
10.47077793,-2.921101382,-2.094903656,3.04997611,3.173168659,2.989956617
9.011744654,-1.872368574,-2.082050312,2.666862726,3.297733068,3.737100363
7.911292765,0.5535235248,-1.707835307,2.064166784,3.421728849,4.165308475
7.220311319,2.878445313,-1.597733887,1.640923977,3.731009483,4.384352207
6.750907508,4.157916383,-1.630292341,1.619347334,4.288305759,4.666211128
6.39892187,4.705761277,-2.260203524,1.873361111,4.870676041,5.018099785
5.810071596,4.684800907,-3.194770439,1.951937556,5.194437981,5.371193409
5.044300574,4.997805365,-4.413314455,1.693652034,5.054102898,5.57891655
4.078265923,5.500381962,-5.628543647,1.155879855,4.364122868,5.587306499
2.841328757,6.110598265,-6.335469096,0.5115374923,3.27760458,5.443590641
1.41373984,6.67708064,-6.546494942,0.04300539196,1.887405634,5.217398167
-0.1724134992,7.317115742,-5.821150624,-0.3007553816,0.5486294627,4.87637043
-2.004320884,7.869403003,-4.670445049,-0.7263872623,-0.4787823558,4.361887932
-4.196034809,8.224957147,-3.416974682,-1.236709237,-1.048542857,3.6616745
-6.196151811,7.874489513,-2.89048471,-1.485233665,-1.291884303,3.041211367
-7.921777918,8.053473623,-2.13921743,-1.282369494,-1.212463856,2.587214947
-9.532679914,8.67551831,-1.546019482,-0.8888174891,-0.8163761497,2.049613714
-10.58670849,9.640459321,-1.794410305,-0.7248388529,-0.4308577776,1.212304235
-10.95210598,10.32513962,-2.140370107,-0.7269119024,-0.06829082966,0.1866893023
-10.20739938,10.2498345,-2.696878201,-0.5090373755,0.1708637476,-0.6323607564
-8.937757042,10.58557218,-2.821699927,-0.008536742069,0.2918335497,-1.193656445
-8.126891325,10.62521913,-2.983872603,0.5484157205,0.1992316842,-1.705713391
-7.028540208,11.30680556,-2.697483181,0.7860464454,-0.04684890434,-2.348373175
-5.219860554,12.46399874,-2.186402959,0.823302269,-0.2708279192,-3.087490082
-2.931858923,13.15590431,-1.465310453,0.9826590419,-0.4258560538,-3.747180939
-0.9412842405,12.37583413,-0.734054864,1.231475115,-0.4657646418,-4.226342201
0.4842290393,10.33757942,-0.4100631484,1.448427558,-0.4134014845,-4.487609863
1.475796775,7.777882073,-0.2937748565,1.594453335,-0.4031376541,-4.384732246
2.1405554,6.128897891,-0.3289712576,1.672032475,-0.653418541,-4.023199081
2.393606617,5.256186836,-0.3782049518,1.572888851,-1.264929175,-3.743661404
2.242211356,4.063457645,-0.4288102267,1.078871608,-1.995991945,-3.716953516
2.230467142,2.385253799,-0.468150888,0.3163803518,-2.705998898,-3.807838678
2.25359755,0.29350773,-0.4428998346,-0.5295532942,-3.280929804,-3.767730951
2.263688151,-1.151912027,-0.2519678052,-1.258109331,-3.438026667,-3.634971619
2.69117239,-1.421723824,-0.434780241,-1.647794127,-3.429056168,-3.411793232
3.307956673,-0.8638321675,-0.5233706709,-1.812791705,-3.307258129,-3.320885897
4.188156038,-0.8155874843,-0.4203916502,-1.990063787,-2.937287331,-3.301289082
5.459046912,-0.6859574803,-0.4778326163,-2.122901201,-2.429133415,-3.210547209
6.981058326,-0.2131885772,-0.8065165814,-2.070393801,-1.885603905,-2.965907097
8.140169909,0.04700783489,-1.438006558,-1.77203083,-1.435449004,-2.690009594
8.8847789,-0.2997276275,-2.213499056,-1.365339756,-1.217242002,-2.396790028
9.404245257,-1.191690495,-3.031388095,-1.07994926,-1.343557,-1.986003518
9.892429756,-1.460444308,-3.421622215,-1.085848331,-1.76021862,-1.547973156
10.23369702,-1.207887013,-3.659443714,-1.261523485,-2.220127821,-1.301510453
10.43855323,-1.506362594,-3.542739827,-1.199218035,-2.392563105,-1.063673615
10.32652961,-2.019485135,-3.187567668,-0.8517946005,-2.058990717,-0.6930799484
10.36249174,-1.229298634,-2.922908139,-0.3661931753,-1.308866024,-0.229350999
9.933456179,0.3176420543,-3.05041779,0.4992093742,-0.2879915237,-0.04572568834
9.806272983,0.6820949597,-2.635693956,1.899477124,1.047659874,0.1311765313
10.43628763,-0.4500362624,-0.904039967,3.37541914,2.679185867,0.7518292069
11.21235617,-2.084324395,1.121980415,4.237370968,4.296642303,1.788320065
10.90694582,-2.776104882,1.706333962,4.105383396,5.361524105,2.834918022
9.679728086,-1.539838163,1.298386783,3.134618282,5.736763477,3.487971306
8.294435757,0.2554091778,0.3135971629,1.830687165,5.743005753,3.789268494
7.133429738,1.835986178,-1.098812598,0.6374672651,5.49183321,3.991497755
6.248444893,3.542359888,-2.222519106,-0.1226833612,5.175170898,4.141578197
5.661489054,5.264677017,-3.161987821,-0.4979237616,4.788346291,4.248366833
4.965474874,5.850118359,-3.896645912,-0.5896078944,4.271696568,4.379406452
3.970279303,5.62111262,-4.616309555,-0.7057632804,3.575019121,4.551536083
2.669763107,5.768758758,-5.390730916,-1.029398203,2.54095006,4.611983776
1.075422662,5.806660326,-5.547344204,-1.42938149,1.358488679,4.513137341
-0.5912158344,5.749066215,-5.008697346,-1.717908025,0.3668116331,4.359390736
-2.051483617,5.942073005,-4.645352401,-1.781670809,-0.2836672366,4.187044144
-3.622159985,6.337461731,-4.44749671,-1.730158687,-0.7125207782,3.967828512
-5.357940407,6.905898163,-4.11680462,-1.671640038,-0.9631059766,3.61085844
-6.900124256,7.641651648,-3.536144374,-1.453599453,-0.9695565104,3.048737764
-8.039958892,7.663581155,-2.813092258,-1.013311744,-0.6351638436,2.450198889
-8.787323904,7.359171508,-2.384415595,-0.5172491074,-0.05672948062,1.920613408
-9.310339478,7.710439353,-1.808361089,-0.1853269637,0.7949928045,1.400286913
-9.253452054,8.508139883,-2.45126561,-0.04569170997,1.687215447,0.873961091
-8.749922102,9.10072759,-4.166554447,0.3401703238,2.332194328,0.2982138395
-7.999302472,9.309641559,-6.123315123,1.16064167,2.349043846,-0.2341966927
-7.163090133,9.741761056,-6.822044991,1.849118948,1.808754325,-0.81703794
-6.143962774,10.2754085,-6.346001596,1.939945817,1.055945754,-1.514772058
-4.615157462,11.82228957,-5.849329839,1.608759403,0.1519750059,-2.323638201
-2.798011593,13.08087625,-5.232600209,1.360444188,-0.7136737704,-3.255025148
-0.8099608766,12.95099432,-4.236050593,1.509002447,-1.348979831,-4.067810059
1.032263904,11.07975738,-3.028697249,1.770032167,-1.78717196,-4.449782848
2.311786412,9.125873137,-2.200987657,1.765096307,-2.250284195,-4.479455471
3.248441823,7.880909901,-1.772994008,1.592650652,-2.863623857,-4.429418564
3.930932504,6.745860161,-1.336117671,1.350162983,-3.49461031,-4.4322505
4.516438729,5.212305609,-0.6837365894,0.9983966947,-4.063778877,-4.291982174
4.168521071,3.065357877,0.2857227752,0.4944451451,-4.385973454,-4.015490532
3.467054764,1.451854174,0.8194406526,-0.1723221093,-4.314940929,-3.828672409
3.085962566,0.4978899004,0.5466892949,-0.8286768198,-4.051970959,-3.822378159
3.273466375,-0.385350732,-0.3158687611,-1.295286775,-4.009538174,-3.783338547
3.590507248,-1.462121301,-0.6757318544,-1.698036075,-3.849814177,-3.744487762
4.598311833,-1.702995758,-0.7435621126,-1.976526618,-3.43493104,-3.621284008
6.235356863,-0.9865081146,-0.8555354638,-1.962144971,-2.91105175,-3.478429794
7.923289492,-0.6843009453,-1.145365967,-1.667927146,-2.474009991,-3.199193001
9.392276003,-0.6681687257,-1.200697101,-1.228928328,-2.181762934,-2.787826777
10.49613215,-0.9934978274,-1.610072559,-0.9518332481,-2.170925856,-2.358525038
10.87143261,-1.644659889,-2.159340473,-1.011260748,-2.444506884,-1.97985208
11.370301,-1.500008257,-2.320504848,-1.185613394,-2.652262449,-1.674203634
11.70574642,-1.448080501,-2.224762208,-1.080376506,-2.45616293,-1.415338159
11.87007189,-1.825198242,-1.861257397,-0.7189532518,-1.736058712,-1.050565124
11.81081189,-2.439075406,-2.172540438,-0.1535782665,-0.8289238214,-0.4396999478
11.85585515,-2.312742105,-2.199935226,0.5104516745,0.05657941848,0.3046935201
11.670294,-1.296127021,-1.842986412,1.174722552,0.8126193881,0.9128166437
12.0398416,0.2299298686,-0.7974377874,1.738809705,1.53610599,1.367278457
12.36054655,0.1539414384,0.2342623449,2.153015137,2.22314167,1.875759482
11.60958322,-1.551294792,0.5450646163,2.241131306,2.68461895,2.70953393
10.08769514,-1.924905402,0.331712373,1.855144978,2.933471918,3.56700325
8.883467233,-0.2628407891,0.238673147,1.27769959,3.128036261,4.187412739
8.394774785,2.705558351,0.52004328,0.8962632418,3.51796627,4.600651264
8.007872732,4.800313538,-0.1056698672,0.7172942162,3.871882677,4.838477612
7.392967394,5.821228949,-0.7700465071,0.5588431358,4.125495911,5.126209736
6.472661644,6.434449695,-1.634641183,0.3531703949,4.225973129,5.397156715
5.256482604,7.109120058,-2.877274807,0.01802960224,3.999875307,5.526801586
3.773813605,7.632398082,-4.326472914,-0.3847248256,3.312823057,5.437945366
2.064305689,7.716059531,-5.468218645,-0.7595079541,2.244893312,5.240191936
0.3017413054,7.595333549,-5.583067259,-0.992826581,1.192343354,4.978238583
-1.421570095,7.407219207,-5.153499784,-1.133460045,0.2928601801,4.673120975
-3.206501209,7.619160999,-4.538937269,-1.155767441,-0.3544707596,4.216655254
-4.706527001,7.557779186,-3.879280059,-1.064690351,-0.6912053227,3.726705551
-6.084914957,7.417882055,-3.260212049,-0.8969012499,-0.7564091682,3.284376621
-7.312669284,7.79046566,-2.687678411,-0.7284094095,-0.5743935108,2.781140804
-8.250579664,7.968447899,-2.49414029,-0.6029272079,-0.2878290117,2.255349874
-8.829327062,8.249069844,-2.821595006,-0.5797479153,-0.05481408164,1.719343543
-9.110426562,8.642739492,-3.342642494,-0.5224107504,0.1127679646,1.139418244
-9.157895,9.548659574,-3.378445629,-0.2819717228,0.2911933362,0.4969353378
-8.783297133,10.23020158,-3.109921826,0.086744681,0.4843173623,-0.1457634866
-8.21596194,10.49705686,-3.034657619,0.4690846205,0.5418649912,-0.755959928
-7.439958863,10.9742278,-2.988489742,0.5495669246,0.3568071425,-1.384752035
-6.532152529,12.10215163,-3.015979806,0.3020696044,0.03884086013,-2.235864401
-4.978516142,12.90553956,-2.807601552,0.1656644642,-0.2542515099,-3.188794136
-3.069407445,12.53708385,-2.189011681,0.3810942471,-0.3638368845,-3.902037859
-1.384246619,10.75846791,-1.707465012,0.6991118789,-0.2872194052,-4.232638359
-0.2838198642,8.955997632,-1.582717519,0.9246429801,-0.2230658829,-4.222848415
0.5467921708,8.236565168,-1.493678469,1.192556739,-0.246088028,-4.141852856
1.312954822,7.630538718,-1.092636832,1.524880886,-0.357208997,-4.16278553
2.094076558,6.307744638,-0.6503235646,1.70980382,-0.5161975026,-4.202819824
2.677502469,4.242762658,-0.3923030353,1.686565876,-0.7552312016,-4.096697807
2.795186015,1.91909993,-0.335130657,1.348763108,-1.069632292,-3.856958151
2.698806246,0.244386264,-0.5172878438,0.696192503,-1.434983253,-3.623621941
2.887031647,-0.260220962,-0.8193409916,-0.05022665858,-1.85779953,-3.433409929
3.30271322,-0.2122843218,-1.102907466,-0.5666726232,-2.367149591,-3.316622496
3.667543434,-0.5058452433,-1.081797019,-0.9424001575,-2.739157915,-3.28178072
4.454590176,-0.3681961835,-1.183439384,-1.362315059,-3.017745495,-3.233400583
5.734689899,0.8100017932,-1.098409862,-1.526925445,-3.336869001,-3.322031736
7.26378981,0.961229881,-0.4270478932,-1.431751847,-3.495082855,-3.407364845
8.509502403,0.2010615015,0.07734744357,-1.496371627,-3.273528814,-3.263709068
9.320548153,-0.3030810295,-0.1225263095,-1.569899678,-2.834736586,-2.916081429
10.24520158,-0.2027268044,-0.5560074506,-1.411739588,-2.389630556,-2.497116566
11.31563184,-0.3776911571,-1.290537531,-1.142915606,-2.194620371,-2.082565308
12.05921032,-0.8149281436,-2.343421613,-1.007811069,-2.431408405,-1.706709981
12.11159867,-1.553627034,-2.659563492,-1.028515458,-2.676683187,-1.281242609
11.90467909,-1.761705136,-2.292003853,-0.8823009133,-2.544039249,-0.8111837506
11.89169686,-1.520402225,-1.415781575,-0.393016845,-1.854615092,-0.3297264874
12.62543316,-0.8908306491,-0.3065472443,0.4106079936,-0.6444533467,0.2200681716
13.33631232,-1.318536422,0.4720838435,1.340112448,0.6928399205,0.9064215422
12.70130294,-3.518636482,-0.1754185262,1.848474741,1.606966376,1.90211153
11.12341181,-4.439917799,-0.6343345529,1.711834431,2.164822102,3.00650239
9.724080438,-2.612495452,-0.2393286883,1.487843275,2.817043304,3.89591527
8.857373007,0.04600654889,-0.4736301962,1.42778039,3.478397369,4.514783382
8.250083405,2.500254389,-1.233097149,1.440078616,3.868243694,4.801975727
7.441735225,3.699593938,-1.901669487,1.400093079,4.018979549,4.956597328
6.680432288,4.07844011,-2.449155193,1.214193702,3.918152094,5.156498909
5.72883299,4.619025243,-2.894137679,0.8954942822,3.563431025,5.327666759
4.596756128,5.490846072,-3.335385655,0.5283872485,2.982633352,5.297780514
3.571460895,6.050601769,-3.549760227,0.208470732,2.251077652,5.116077423
2.844636566,6.196486742,-3.673811262,-0.05191742629,1.377328753,4.954580784
1.897088005,5.957173543,-3.683725338,-0.4682317376,0.3669509888,4.893199444
0.7513485287,6.296282164,-3.537926289,-1.094460845,-0.6930631399,4.818327427
-0.6843494606,7.243689856,-2.790081385,-1.52326107,-1.455856562,4.638656616
-2.155567676,8.134090882,-1.884685912,-1.520568728,-1.735690832,4.349756718
-3.464062596,8.870161177,-0.8994234131,-1.244214892,-1.560494065,4.008599281
-4.487086378,9.157292358,0.04522065921,-0.8744364381,-1.069712639,3.623078108
-5.292146038,9.172750039,0.4305354431,-0.7385714054,-0.4099642634,3.234030247
-5.950199028,9.556436053,0.373701503,-0.8379713297,0.1676173955,2.816227436
-6.71781597,10.5979734,-0.1370426183,-0.9698477387,0.6653580666,2.268553495
-7.713679358,11.39864914,-1.322367086,-0.8947553635,0.9056625962,1.703433633
-8.764386096,12.21569501,-2.498020639,-0.6408075094,0.7997502089,0.9705563188
-9.469363919,13.24696347,-3.305649858,-0.5870299935,0.3989972174,-0.02758951113
-9.327624375,14.41786019,-3.407252914,-0.7983354926,-0.009368933737,-1.379562616
-7.610288541,15.55265449,-2.910255871,-0.8013543487,-0.2985049784,-2.781765461
-5.599645469,14.69796424,-1.80431006,-0.3193155229,-0.3871439397,-3.809721708
-4.124446075,12.47853463,-0.7408055073,0.3146551549,-0.2461282015,-4.345182419
-2.941541528,10.4455675,0.05980331132,0.8721538186,-0.08929700404,-4.473749161
-2.108169965,9.184016699,0.5762295699,1.150919795,-0.08016856015,-4.482431889
-1.333514211,8.626459388,0.9517536121,1.040567398,-0.1526188403,-4.590412617
-0.3903185835,8.479880587,0.9168564862,0.6126022339,-0.2115298808,-4.843319416
0.8511369366,8.00012957,0.5929153318,0.1669923365,-0.3000000417,-5.106619835
1.738095128,6.489367865,0.09440116197,-0.06144003198,-0.3624948561,-5.255208015
2.348013909,4.575770623,-0.1042380808,-0.0226155445,-0.2393098772,-5.276983738
3.115646633,2.583806533,-0.2169511446,0.1173198596,-0.1145316437,-5.067249298
3.953912983,1.175520866,-0.3208563402,0.1094483584,-0.163077876,-4.620604992
4.75884171,1.179389817,-0.2617071089,-0.1791191399,-0.3110442758,-4.265218735
5.905540387,1.776905628,-0.5477686146,-0.5856481194,-0.6447575688,-4.123484135
7.477809578,2.344296935,-0.7931585026,-0.8959066868,-1.262272596,-4.036780357
8.822799122,1.925375942,-0.6712418495,-1.254131913,-1.865489125,-3.951967001
10.04893082,1.335908412,-0.9390686103,-1.732394457,-2.304536819,-3.797042608
10.99270687,1.011390042,-1.611371659,-2.163671017,-2.625485182,-3.570097208
11.75096971,0.8005670253,-2.309426697,-2.297252655,-2.871499538,-3.20417738
12.33705812,0.5296306081,-2.710180165,-1.9405756,-3.055217266,-2.797732115
12.54603522,-0.6091711778,-2.598340085,-1.419485092,-2.923777103,-2.310930967
12.34667,-1.49641637,-2.40496037,-1.024957895,-2.387853622,-1.724829912
12.30635202,-1.687037726,-2.302809325,-0.6002191305,-1.499141932,-1.146976829
12.78835578,-1.50543262,-1.592414738,0.05137453601,-0.2196990848,-0.5621131659
14.34718214,-0.7564116573,-1.000266006,0.8311319947,1.294659257,0.09014543146
15.39305429,-1.660527904,-1.308591951,1.621420026,2.316849709,0.8909370899
14.30437409,-4.409760562,-1.988338886,2.008507013,2.744302511,1.947574019
12.37134267,-5.474553693,-2.232515891,1.883244634,2.927265167,3.067972898
10.93951772,-3.821203133,-1.762516745,1.723943472,3.124795437,3.989749193
10.04525417,-1.184307984,-0.8470730482,1.667482495,3.544642925,4.675545216
9.541008182,1.52843531,-0.3826233528,1.588053346,3.999409914,5.088926792
8.892668192,3.664752342,-0.5289855882,1.326812983,4.270412445,5.225092411
7.982824215,4.893154904,-1.054857136,0.8775595427,4.328393459,5.206245899
6.903168446,5.408265988,-1.852116644,0.3815107346,4.213030815,5.148313999
5.678973857,5.48320637,-2.933010723,-0.003516945988,3.882994413,5.090668678
4.401116652,5.548802001,-4.078180583,-0.3276157081,3.293734312,5.019890308
2.95565364,5.75339986,-5.065351545,-0.664914012,2.448249817,4.876714706
1.408675542,6.178587513,-5.62930411,-0.9928901792,1.443892717,4.609885216
-0.1164601413,6.676932756,-5.566196204,-1.265259624,0.5189835429,4.220549107
-1.744931112,7.018228657,-5.174321038,-1.405288935,-0.1120836511,3.763502359
-3.265050428,7.091642853,-4.703922372,-1.465578794,-0.3823373914,3.300768614
-4.665457909,7.320802322,-4.315757167,-1.446081281,-0.3129543364,2.847125053
-5.802265306,7.913025872,-4.300838415,-1.338433981,-0.06799373776,2.364386559
-6.664714495,8.288981584,-4.630582995,-1.107211828,0.06754915416,1.923201084
-7.797199352,8.757402813,-5.073612593,-1.008888721,-0.1270682216,1.43820703
-9.338880513,9.363972284,-5.721010333,-1.222164631,-0.5535671115,0.8037204146
-10.20808561,10.33215155,-5.823710245,-1.449493647,-0.8897451162,-0.03747404739
-10.13049617,11.66301436,-5.631685452,-1.246712208,-1.186555862,-0.7625141144
-9.414374437,13.80161863,-5.053479321,-0.685123384,-1.519769192,-1.495222092
-8.840971907,16.73505226,-4.281804628,-0.232736662,-1.616816998,-2.682862282
-7.432377614,18.02288257,-3.079478465,0.03862288967,-1.269441605,-4.206906319
-4.344437318,16.92882243,-2.495641342,0.3791863322,-0.9311344624,-5.251046181
-1.400605049,12.68116265,-2.389655249,1.241798878,-0.8660171628,-5.149107933
0.01623100383,9.474861347,-0.8705272813,2.160146952,-0.8531287313,-4.511109829
0.8860819933,8.197172484,0.735589234,2.506928682,-1.037419558,-4.036746025
1.809088819,7.299155723,1.603668245,2.077186584,-1.553568959,-3.831651211
2.574424372,5.661472687,1.653038718,1.166154981,-2.06307745,-3.875744581
3.406625722,4.037659772,1.595852311,0.2105263174,-2.32807827,-3.8527143
3.807583188,2.993563976,1.517947526,-0.1832094043,-2.147845984,-3.808798075
4.013775038,1.449561679,1.761696369,0.0776841864,-1.520209074,-3.739192963
4.459785698,-0.8332534894,2.139171253,0.4649817348,-0.5864990354,-3.46053791
5.14863247,-2.591344527,1.638584368,0.5980162024,0.1491076201,-3.044689894
5.782524248,-3.003390374,0.5890249002,0.5794509053,0.3873841166,-2.76886034
6.664270842,-2.857742716,-0.1605542807,0.5283216834,0.1408034861,-2.619222879
7.813288317,-3.274808437,0.2826632415,0.3484523892,-0.2999761105,-2.417961121
8.985248861,-3.951440455,1.259558017,0.002093015006,-0.6816379428,-2.076563835
9.805330734,-3.616550329,1.572182681,-0.4789636433,-1.009519339,-1.741431832
10.42689553,-2.827584894,1.120714487,-0.99920398,-1.306211114,-1.499210715
10.98558857,-2.845106522,0.3199193516,-1.381504178,-1.565840483,-1.233255029
11.38557222,-3.162845022,-0.2932508327,-1.416260719,-1.677543759,-0.8789120317
11.60188623,-3.229006471,-0.6790452167,-1.049162388,-1.588544965,-0.3192263246
11.17192479,-2.831222958,-0.6304641412,-0.5234106183,-1.285505414,0.311380893
10.21230235,-1.915176035,-0.3870613353,-0.1138541773,-0.7899960876,0.7383463979
9.470065345,-1.431936591,0.06081541097,0.3416906893,-0.1274143606,0.8869535327
9.84192122,-1.187417056,0.9293091406,0.8941978216,0.6637253761,1.096960068
11.28990469,-0.4936112002,2.206760688,1.292976379,1.528847575,1.51526463
12.74908175,-0.1121165591,3.158753954,1.459311485,2.275588036,2.190837145
12.12773031,-1.129846326,2.68602889,1.258930326,2.683556318,3.098693371
10.25705568,-0.726309949,1.40413863,0.5863732696,2.744039059,4.03221941
8.894533986,1.886332802,0.4117534396,-0.08249979466,2.614739895,4.715258121
8.725225467,5.704137525,0.270295489,-0.4563930929,2.449284315,5.191300869
8.169992216,8.350112636,0.1297708738,-0.5981913805,2.348833561,5.412760258
6.993881567,9.501077738,-0.4269184216,-0.7613641024,2.341104984,5.53645277
5.335333438,9.836743525,-1.158812016,-0.8875465393,2.397217512,5.553610325
3.356523428,9.242669963,-2.1195433,-0.7603737712,2.462283134,5.41088295
0.8922796789,8.216369936,-3.051431059,-0.6169016361,2.42649579,4.931386471
-1.619106345,6.148446641,-4.440124136,-0.7883253694,2.339393854,4.21132803
-2.67296541,3.968587405,-5.597085263,-1.038283467,2.16532445,3.751081467
-2.794500955,3.440680844,-6.100290221,-1.170112371,1.952599049,3.728705883
-3.148847477,4.81462731,-6.413205831,-1.102146506,1.602158904,3.724710226
-4.262569182,6.408303446,-6.490835599,-1.007461667,1.238298416,3.36835289
-5.105348625,8.027817788,-6.442789653,-0.9389711618,0.9405526519,2.682824373
-5.588175396,8.590019125,-6.153169578,-0.7911522388,0.8610937595,1.962403774
-5.513855191,8.687078984,-5.925552078,-0.5147060752,0.7407153845,1.544209003
-5.698994316,9.136838183,-5.796825745,-0.3008290827,0.5433532,1.252286315
-6.212092892,10.10700307,-5.839596381,-0.1206824332,0.2478183508,0.7723576427
-6.681772597,10.41574519,-5.730212462,0.1863475293,-0.2177969664,0.1949955523
-7.381550513,9.928995108,-5.097850378,0.6392451525,-0.824552834,-0.3684921563
-7.860484953,9.806083014,-3.860006034,0.9007129073,-1.349998116,-0.9375287294
-7.827816609,10.26311133,-2.51375626,0.7468122244,-1.698021054,-1.580530763
-6.999694637,11.70355797,-1.397787069,0.3628463447,-1.835025549,-2.474809408
-5.102934549,13.18409931,-0.3583458206,0.2444849312,-1.734630346,-3.521325588
-2.721606984,12.7856623,0.9935334832,0.6266819239,-1.124820352,-4.307481766
-0.6676221977,10.33965681,1.689823849,1.349032879,-0.134639889,-4.537284851
0.5003238496,7.45466368,1.144680322,2.01904726,0.669644773,-4.198839188
0.9639689506,6.567782645,0.05679390037,2.361023903,0.838490665,-3.739548445
1.429255974,6.801358761,-0.6721814684,2.39833951,0.452848047,-3.548800707
2.15053845,6.710778327,-1.196660685,2.262461662,-0.3531275392,-3.613835573
2.746768897,5.498121031,-1.078601292,1.939014196,-1.275759816,-3.86632061
3.229618465,3.007460984,-0.4029577003,1.365805268,-1.911398172,-4.046576977
3.703243108,0.5052192204,0.09623889879,0.7544686198,-2.153171062,-3.946218014
4.009814318,-1.242071022,0.2555634916,0.2951588035,-2.20322752,-3.554977894
3.985036143,-2.08777132,0.1862593615,-0.001751352451,-2.234296799,-3.120739698
3.855034383,-2.227996952,-0.1046557217,-0.347769618,-2.272913456,-2.856660604
4.073411761,-2.167176281,-0.4041510017,-0.7409635186,-2.46921587,-2.711887598
4.548687386,-2.066222921,-0.4232274581,-1.091226339,-2.650200367,-2.575082302
5.170947763,-1.793375701,-0.2437514732,-1.341870546,-2.636775255,-2.398653269
6.047454703,-0.8711696708,-0.3901096169,-1.481002808,-2.559372425,-2.251684427
6.957557039,0.05758826562,-0.6479276094,-1.628621697,-2.408840418,-2.189147711
7.751613659,0.4935089089,-1.001729357,-1.719809651,-2.177286625,-2.147542477
8.64015649,1.026500518,-1.016163248,-1.526192188,-1.784090042,-2.122172594
9.712923084,1.096964632,-1.05961982,-1.051436424,-1.299564362,-2.099735975
10.86573352,0.3446744382,-1.578789825,-0.5704721212,-1.108368278,-1.962506652
11.8898638,-0.744642309,-1.719672752,-0.221381411,-1.184583426,-1.626498461
12.64580843,-1.831033524,-1.057033019,0.1057844609,-1.229624152,-1.064544082
13.58667707,-1.789675678,0.4892924602,0.4916900694,-1.022953153,-0.1412201971
14.13452021,-1.205432021,1.857638915,1.08135581,-0.5721047521,0.8254173994
13.23189917,-2.020823106,3.005134587,1.652396441,0.08546252549,1.770936131
11.0433931,-3.415033485,3.377949662,1.712738752,0.9481003284,2.84347415
8.986369974,-3.008203911,3.177389388,1.394485831,1.795179725,3.78676343
7.55404643,-0.861348534,3.094199356,0.9261206985,2.878586531,4.388449669
7.172744096,2.15575297,2.383808861,0.6040285826,3.998639584,4.757601738
7.339049926,4.850792849,1.51106858,0.7195284367,5.005827427,5.030766964
7.000481988,5.507953858,0.1068158224,1.048262358,5.809399128,5.238808155
6.234200094,4.849603347,-1.696541467,1.117085218,6.072131634,5.431752682
5.228849332,4.682367542,-3.602878946,0.7772774696,5.543509007,5.428920269
3.805331025,5.056074598,-5.595912712,0.2011273801,3.995463371,5.156250477
1.724081216,5.751373323,-6.265847863,-0.5351936817,1.903334022,4.589093685
-0.1413712952,5.716545755,-5.929686402,-1.291870594,-0.03818486258,3.94636631
-1.672908663,5.232414331,-5.196737453,-1.83304143,-1.528765798,3.453814983
-2.893662171,4.885687052,-4.135940113,-2.03382349,-2.50048995,3.147876501
-4.031504756,4.633874437,-3.051127984,-2.012652636,-2.851130009,2.992884398
-5.255600561,4.857860887,-2.186840182,-1.952292681,-2.642729998,2.94072938
-6.272517842,6.258758197,-1.182707563,-1.952009916,-2.023614168,2.785762787
-7.366941557,8.013542594,-1.034917341,-1.908589482,-1.214540482,2.310882092
-7.737180645,9.234619343,-1.363878954,-1.780679345,-0.4019955397,1.648842812
-7.794747283,9.736575178,-2.034116595,-1.473489642,0.2816747129,0.9195278883
-7.62217947,9.682292968,-2.808646385,-0.9426185489,0.7324848771,0.2445355505
-7.530621715,9.12369404,-3.451526355,-0.2679529488,0.9625700712,-0.3461713791
-7.492910701,8.376408523,-4.103452971,0.3758527637,0.8690163493,-0.8680313826
-7.320904613,8.473931908,-4.459980344,0.8131446838,0.3185482919,-1.386658788
-7.002232047,9.846894332,-4.209830987,0.8762766123,-0.6344697475,-2.048180342
-5.947701951,11.57423484,-3.269757291,0.554813087,-1.61877501,-2.927242517
-4.012593135,12.95379886,-1.690157319,0.08145003766,-2.331961393,-3.94995141
-2.17731832,12.38569034,-0.001796820289,-0.2958953679,-2.471277237,-4.836988926
-0.5672901844,10.42996895,1.144852464,-0.3604979217,-1.988890052,-5.227419853
0.5163859266,8.285602462,1.802494827,-0.1279940158,-1.171634674,-5.006074905
1.271831954,7.532425549,1.706808156,0.2141441703,-0.3893745244,-4.584570408
1.805575842,7.122354802,1.112668981,0.4142363667,0.04731853679,-4.416646004
2.383489127,5.856870172,0.2563540574,0.4244348407,0.1442093998,-4.499251366
3.097546329,3.691090898,-0.3011021307,0.3520186543,0.04375727475,-4.54678297
3.684086572,1.227587738,-0.5650947202,0.2901036739,-0.05916024745,-4.354712009
4.210682927,-0.6126134272,-0.6769651956,0.2845603526,-0.1617657691,-3.971926689
4.736490762,-1.39979081,-0.8907853487,0.2775381804,-0.339971453,-3.49118948
5.078129778,-1.669462906,-0.9388440078,0.2907633483,-0.6067160368,-3.119496107
5.510019559,-1.754079464,-0.8398436815,0.1551540196,-0.9137521386,-2.810409784
6.082278763,-1.603694841,-0.7327312142,-0.1797216386,-1.249334216,-2.551767111
6.68136577,-1.553239496,-0.9652277184,-0.5564131141,-1.691348076,-2.376176119
7.389630943,-1.399027424,-1.102791876,-0.8802281022,-2.170630932,-2.216493368
8.070612973,-1.574026848,-1.147156942,-1.113537192,-2.61417985,-2.017269135
8.701196942,-1.608548711,-1.401484754,-1.279044986,-3.098522425,-1.779458165
9.310503144,-1.10719318,-1.372269765,-1.467293978,-3.43227911,-1.636029005
10.18575453,-0.9060048374,-1.109919975,-1.593372345,-3.374445438,-1.522476792
10.81574053,-1.167185584,-1.242245501,-1.512697101,-2.975659847,-1.367039919
11.20562131,-1.363397308,-1.392975284,-1.190189123,-2.302947044,-0.9984549284
11.26563651,-1.436817349,-1.764764232,-0.4839652479,-1.442165136,-0.4725539088
11.59798747,-0.8715636386,-1.174454699,0.710791409,-0.3178063035,0.04551519454
12.09472587,-0.9341337843,-0.09782470668,1.795670986,1.047783375,0.7718216777
12.71220661,-0.9968599973,0.7928130502,2.476122141,2.145302534,1.552802801
12.25480771,-1.768871959,1.222341654,2.59981966,2.874073505,2.407622814
10.95520278,-1.829584494,1.374913266,2.156229973,3.363612175,3.25784564
9.887419235,-0.250581027,1.901634416,1.366100311,4.016738415,3.975394249
9.209538678,2.547924487,1.681532552,0.5751134753,4.86950016,4.450297356
8.998712154,5.402601971,0.9622668228,0.1520536095,5.836433887,4.737054825
8.595995861,6.953700948,-0.2009852214,0.1010218337,6.751269341,4.985426426
8.319182661,7.312581021,-1.845563277,0.08469998091,7.330965519,5.284484386
7.518473596,7.404602887,-3.969523516,-0.007653686684,7.156170845,5.382056236
6.091734574,7.242479311,-6.183631352,-0.3909105062,6.027878284,5.302739143
4.241703504,7.369971134,-7.671507272,-1.066994548,4.128288269,5.034276485
2.30906897,7.423633166,-8.0254306,-1.874976158,2.03071022,4.638137817
0.4464467134,7.153089548,-7.59254421,-2.511919022,0.1765865386,4.256725788
-1.064539449,6.945884137,-6.494812686,-2.670826912,-1.120011806,4.058197975
-3.005541414,7.242052026,-5.213225062,-2.509601116,-1.732678771,3.88210535
-5.748972692,7.45260967,-4.032533515,-2.207794189,-1.712345958,3.646541595
-8.218824344,8.228907931,-3.617655075,-1.896672487,-1.29266274,3.163513422
-9.666773912,9.364511797,-4.085453789,-1.681164026,-0.9436692595,2.414747238
-10.24097198,10.23103627,-4.425000801,-1.449051261,-0.7860198021,1.476404905
-10.64724158,9.836500364,-4.643181779,-1.21799159,-0.7789594531,0.6122092009
-10.91464865,9.075839817,-4.731613512,-1.107726216,-0.7734031677,-0.0235960409
-10.94834283,9.215932763,-4.651287344,-0.9346423149,-0.6900815964,-0.6289818883
-10.36453406,9.792370715,-4.288858054,-0.5963010788,-0.5558099151,-1.266925216
-9.257429141,10.77454694,-3.828115104,-0.2233788967,-0.4581478536,-2.020852804
-7.721182865,11.9624848,-3.43850613,-0.1248848066,-0.3554773927,-2.758399248
-5.727085269,13.52225575,-3.470684645,-0.207650125,-0.301535219,-3.622062206
-3.178764476,14.4279011,-3.266736482,-0.1357267499,-0.3448504806,-4.351715088
-0.8845902934,14.97892638,-2.889045032,0.2399017364,-0.4612495303,-4.947285652
0.9130050715,13.76569392,-2.238007474,0.6786162853,-0.4934776127,-5.382455349
2.425290626,11.82934358,-1.761344486,1.05500555,-0.4920769036,-5.479178905
3.884190043,10.52450367,-1.126319905,1.626409769,-0.5418714881,-5.311083317
5.264207646,9.550973111,-0.3369616718,2.313170671,-0.8345918059,-5.105253696
6.677599111,8.010396113,0.7410808171,2.635507584,-1.220757842,-4.940096855
7.477580445,4.988792037,1.514345117,2.461924553,-1.540291786,-4.686202049
7.291909405,1.015394602,1.443964152,1.921046495,-1.921421766,-4.095633507
6.270479614,-2.142403659,1.235500703,1.167305589,-2.223215103,-3.276454687
5.181747974,-3.380595208,0.8960498451,0.4371343255,-2.343309641,-2.531491756
4.475482157,-3.085484135,0.4998458568,-0.1364356577,-2.396055698,-2.047230482
4.124262243,-2.330501049,-0.01407791745,-0.528819561,-2.557879925,-1.843947053
4.057542576,-1.464486861,-0.223611187,-0.8621605635,-2.714012146,-1.866579413
4.382773478,-0.9495154778,-0.1501483298,-1.168997884,-2.749646664,-1.994519353
5.112953254,-0.4815858313,-0.1504969971,-1.375522852,-2.710374594,-2.106072426
6.029990942,0.04288344844,-0.271249721,-1.432133675,-2.618460655,-2.280386448
7.172922375,0.1413502524,-0.5798901382,-1.533768892,-2.470201492,-2.414640188
8.430008595,-0.08581482767,-1.144829376,-1.662029147,-2.36415863,-2.443851709
9.747024676,-0.3637532326,-1.611632064,-1.757609725,-2.340441227,-2.344258547
10.96383032,-0.5468441932,-2.312075458,-1.790240288,-2.41471839,-2.140898705
11.75448035,-1.080688035,-3.073001378,-1.707365036,-2.496218443,-1.879269361
12.23711306,-1.33015321,-3.336851052,-1.462443948,-2.384962797,-1.469280481
12.58727908,-1.680804969,-3.087475601,-0.8141151071,-1.938733935,-0.9373281002
13.45105747,-1.265230363,-1.598997623,0.2297513336,-1.023380995,-0.147532776
14.42833833,-0.2701040581,-0.03506254555,1.520940661,0.2333626449,0.7326462269
14.37806944,-0.9357751217,1.338434716,2.595596552,1.473013997,1.637470603
12.70259824,-2.737647433,1.610596291,2.996978521,2.407712936,2.652220726
10.93192946,-3.034200522,1.775534048,2.658183813,3.129096985,3.543306828
9.81722517,-1.285769294,2.0334102,1.856058478,3.84326148,4.170083523
9.453411732,1.561854764,1.734767299,0.9468427896,4.557875156,4.54532814
9.239553877,4.698395717,0.7008687799,0.31119591,5.102954865,4.808094025
8.701955651,6.588105887,-0.4140487109,0.09879428148,5.555660248,5.053681374
7.755864302,7.105804065,-1.750974776,0.09615219384,5.900747299,5.33581543
6.512762184,7.076655127,-3.789571438,0.07466790825,5.721419811,5.476259232
5.190547366,7.437471137,-5.861078145,-0.1995766461,4.690861702,5.401732445
3.397553358,7.798951164,-7.354857152,-0.6890322566,2.861299753,5.091948986
1.496830211,7.718003066,-7.269183194,-1.31817317,0.8741959929,4.682199478
-0.3131868285,7.253989132,-6.053453067,-1.783951044,-0.6289715171,4.320253372
-2.04978675,7.059777642,-4.564223978,-1.948518515,-1.408768058,3.998269558
-3.493934587,7.110416527,-3.415563061,-1.898934364,-1.569046974,3.765267849
-4.908907769,7.415084534,-2.63572026,-1.750646472,-1.276342392,3.585810661
-6.564584726,8.378161504,-2.203257063,-1.522233009,-0.7564360499,3.333461761
-8.433513389,9.529315991,-2.146135831,-1.310415149,-0.1338370144,2.846013069
-9.978712202,10.24622566,-2.909464428,-1.170486093,0.38583529,2.096163511
-10.94259581,10.16278165,-4.293081225,-1.034506321,0.5139415264,1.217548966
-11.52632392,9.567986205,-5.381451046,-0.8564507961,0.255017817,0.3513880372
-11.33735618,9.813430454,-5.475028325,-0.5764160752,-0.09129461646,-0.4831162989
-10.65896358,10.15807976,-4.985375507,-0.1946468353,-0.3624189496,-1.333044887
-9.433312946,10.44356492,-4.160445024,0.09138433635,-0.5186923146,-2.170958996
-7.635271591,11.25913078,-3.329599473,0.1610363126,-0.5787091255,-2.885418653
-5.827524835,12.34820963,-2.858312625,0.03681332991,-0.5793918967,-3.560074091
-3.980142818,13.0962258,-2.571052557,-0.08759337664,-0.486772567,-4.259660721
-1.828088118,13.57120244,-2.271341589,0.05992030352,-0.2667638361,-4.815701962
-0.02955634935,12.49337447,-1.867552406,0.6106114388,0.1250932813,-5.164506912
1.562455068,10.62243213,-1.588195659,1.451642752,0.4596221447,-5.137205124
2.943371666,9.273653715,-1.19815823,2.327067614,0.5334249735,-4.816591263
4.225443859,9.043612787,-0.4378682702,2.906580448,0.1228032708,-4.544229031
5.207031468,8.093020035,0.2867059411,2.924268246,-0.6580219865,-4.466894627
5.705844328,5.459378336,0.9461597376,2.28976655,-1.473137259,-4.505897045
5.977260638,1.86181094,1.500752938,1.342725039,-2.100984335,-4.289159298
5.84180412,-1.008246484,1.643686367,0.4681991041,-2.587781191,-3.748492241
5.420034167,-2.105502792,1.3698912,-0.3126084507,-2.787521124,-3.203531265
5.295750785,-1.657795265,0.638580666,-0.9856188893,-2.955251932,-2.856627941
5.682366422,-0.4298538905,0.1566762702,-1.466944814,-3.149553061,-2.783642769
6.371074078,0.05029401695,0.16532471,-1.681737304,-3.170534372,-2.885635376
7.176595511,-0.2371978138,0.2499056119,-1.68561697,-2.948566198,-2.940621614
8.063722629,-0.75057053,0.136098031,-1.649994969,-2.477598429,-2.86725378
9.058338647,-0.8518366093,-0.4638987835,-1.59797895,-1.972777843,-2.754078627
10.30733742,-0.6629413464,-1.188757072,-1.511389256,-1.569404244,-2.627340555
11.70522503,-0.5879477725,-1.638158544,-1.375064135,-1.238203287,-2.400810242
13.0566373,-0.5966635784,-2.040117296,-1.21742022,-0.8656884432,-2.08129406
14.10286835,-1.124481584,-2.53426158,-0.9787520766,-0.5149492621,-1.615954757
14.66064954,-1.895414519,-3.166162769,-0.6433793306,-0.3073893785,-0.9020225406
14.91262991,-1.84547063,-3.375808559,-0.1559471786,-0.1176830381,-0.1561604142
15.5331373,-1.283076401,-2.527116385,0.6426964998,0.225507468,0.4722284973
16.44392996,-1.063322474,-1.096286002,1.48557055,0.7379209995,1.263227224
16.88134055,-1.601624465,0.3431178564,1.984423995,1.278956294,2.297518015
15.70084716,-2.227796461,0.8423153323,1.961089611,1.684908748,3.538085938
13.88537477,-0.857422885,1.062372042,1.410853505,2.060328484,4.701995373
12.53482292,2.482185649,1.39492145,0.7178598046,2.627257824,5.483661175
11.72065173,6.511142474,0.8979188538,0.04446442425,3.223748684,5.909072399
10.91702181,10.31927336,0.05876812305,-0.3293084204,3.967329979,6.059804916
9.892805019,12.01946517,-1.296852998,-0.3494339287,4.70651722,6.205354691
8.60003783,11.96211655,-2.920234244,-0.2045269012,5.285917282,6.382288933
7.386296246,11.63670503,-5.40416849,-0.1846078187,5.299024105,6.488695621
5.568152599,11.38357783,-8.001619517,-0.4066063166,4.3715415,6.358409405
3.29996509,11.23233162,-9.648622754,-0.7419557571,2.774278641,6.01986599
0.6656611268,10.75858131,-10.25455042,-0.9706104398,0.8265561461,5.51994133
-1.725553627,10.78367951,-8.811638845,-1.001141191,-0.7426964641,4.880486965
-3.718407944,10.68827852,-6.786769679,-0.8858428001,-1.600765705,4.134558678
-5.29302399,9.864531696,-5.08415503,-0.7189813852,-1.816365004,3.490014315
-6.703243255,9.009772477,-3.678933427,-0.6235124469,-1.539979935,3.052692413
-7.892272422,8.619175076,-2.830981551,-0.5756889582,-0.8722673059,2.72100997
-8.912689236,8.69630274,-2.9347412,-0.5560048819,-0.1656075418,2.415340662
-9.529394317,9.521796117,-3.349581938,-0.4489870965,0.4138723016,1.979490638
-10.25384432,10.06348892,-4.233578065,-0.2464649081,0.7234963179,1.331790566
-11.07323645,9.869888254,-5.263513234,0.00327939773,0.7582876086,0.6275756955
-11.42264494,8.912271303,-5.915430497,0.2806809545,0.5964331031,-0.01569633558
-11.13094981,8.988304741,-5.257674444,0.6710966229,0.4500746131,-0.5727121234
-10.06795233,10.81452239,-4.620587086,1.248413444,0.2155104131,-1.393728614
-8.220101524,12.37849955,-3.805691675,1.554344058,-0.2929685414,-2.386113167
-5.879389462,12.08158698,-2.420857612,1.244533062,-0.7756814957,-3.204881907
-3.501782378,11.70029517,-1.639008731,0.7102684379,-1.212416649,-3.731259584
-1.638017382,11.76067628,-1.061416933,0.4653762877,-1.47169745,-4.076751709
-0.09858429287,11.44291148,-0.5288797897,0.3848810196,-1.503367901,-4.317205906
1.090666408,9.933476052,-0.1646878734,0.347687602,-1.336982489,-4.389015198
2.18227039,8.663838394,-0.3780792796,0.5258197784,-1.209911704,-4.356991768
3.080242143,6.875003843,-0.8612775146,0.8421601057,-1.410868645,-4.11725235
3.74278543,5.727632966,-0.301478855,1.003309965,-1.698307395,-3.809435844
4.017877213,4.737682602,0.3004877982,0.6307493448,-2.040033817,-3.658438206
4.104484652,3.018063042,0.3918120369,-0.06500238925,-2.381396294,-3.562385559
3.932270475,1.599344245,-0.1159340716,-0.6703472733,-2.721083164,-3.392916918
3.528402966,0.8049690597,0.08385185703,-0.7947930098,-2.579458952,-3.361484766
3.677432667,-0.6054337448,-0.4674949083,-0.7595459819,-2.355475187,-3.242978096
3.988289592,-1.500705007,-0.6142164785,-0.7378823161,-2.203770638,-3.005875826
4.410210936,-1.951168555,-0.5201610612,-0.7329832911,-2.053741455,-2.81401515
5.035250421,-2.487212537,-0.5448877984,-0.8251165748,-1.889820814,-2.548326969
5.76922053,-1.932255764,-0.4567573873,-1.040430427,-1.682379127,-2.328497648
6.56753773,-1.101762387,-0.8792948174,-1.193638802,-1.509364128,-2.241942167
7.536001654,-0.8798317007,-1.636298303,-1.196335673,-1.481438041,-2.153923512
8.338733749,-1.004511389,-2.213465738,-1.294420481,-1.561772704,-1.973606825
9.097340286,-0.6449696364,-2.98414236,-1.566741109,-1.792411327,-1.834616542
10.08487657,0.2613724701,-3.353586498,-1.584648252,-1.880619287,-1.840676427
11.42445345,-0.5138970324,-3.797273099,-1.24553442,-1.830529332,-1.63255465
12.29640813,-1.877635116,-3.714763742,-0.7847937942,-1.594397902,-1.076471925
12.69233286,-1.736589984,-3.161189072,-0.3654473424,-1.115425706,-0.4443677962
13.44781455,-0.9317606254,-2.581631819,0.1617296636,-0.5945696831,0.20315741
14.67820974,-0.7504805137,-2.64083921,0.6805174947,-0.4466811717,0.929078877
14.36310334,-2.89509308,-2.837342026,0.8832374811,-0.6910426617,1.992459297
12.11305413,-2.94520005,-2.838834602,0.7768228054,-1.052293539,3.068185568
9.350375136,-0.1058557452,-2.490534082,0.8399465084,-1.252293944,3.605727673
7.04040308,1.974521958,-2.765389134,1.373136044,-1.33116591,3.809517622
5.893378824,2.709519655,-1.408022193,1.985883832,-0.8709487319,4.210617065
5.198699693,4.169676963,0.2563851832,2.317549467,0.08649709821,4.633523464
4.199814912,6.532455896,0.02407514146,2.637854099,1.016708612,4.713768482
3.341296048,6.359248616,-1.706938358,2.87258625,1.284873128,4.846059799
2.69956817,5.94468348,-2.195658279,2.751487017,0.9786895514,5.052880764
2.019661076,6.658739512,-1.34673142,2.421613455,0.4600566924,5.121674061
0.8600771989,6.094003104,-0.3833586814,1.759126067,-0.2140242159,5.103569031
-0.612553806,5.850478425,0.619697248,0.9775629044,-0.7974087,4.937234879
-1.87689745,6.615984658,1.569831734,0.5143290758,-0.992502749,4.666211605
-3.177060595,7.033425642,2.351212413,0.5271019936,-0.7279525995,4.371628284
-3.968028602,6.993300552,3.053973729,0.7332478762,-0.1831497252,4.147754669
-4.536137117,6.977948085,3.175179603,0.5634829998,0.2319642752,3.933946371
-5.062649885,8.201566335,2.919187657,0.1372176707,0.3450454175,3.48275876
-5.646417157,9.744192667,2.784093543,-0.08826445788,0.4041897655,2.787321568
-6.148045075,9.662119364,2.005613261,-0.2081982195,0.3153067231,2.109116554
-6.719219992,9.164677792,1.247238195,-0.4433629811,-0.04289299995,1.578067303
-7.950155287,9.46178267,1.524378728,-0.7123534679,-0.3712998033,1.006562471
-9.082774,10.74125842,2.691665434,-0.6400054097,-0.1906160861,0.09851201624
-8.837659422,9.649627547,2.648438287,-0.5081506968,0.04857999831,-0.6740134358
-8.045618233,8.947277734,2.999227993,-0.5828801394,0.2541968822,-1.343175411
-7.081577386,9.262930076,3.248799551,-0.9390612245,0.4327130318,-2.040503263
-5.524838942,9.626405077,3.738386902,-1.550753951,0.7592362761,-2.759804487
-3.193419609,10.44899513,2.93949161,-1.816185355,1.209210515,-3.518213272
-0.908851459,10.35351699,1.512835005,-1.479704618,1.505393147,-4.116178989
0.7015671374,9.107249685,0.3594260171,-0.8066772819,1.542707801,-4.40063715
1.825807898,7.529418184,0.6933538742,-0.2094041109,1.557046056,-4.266075134
2.676972308,7.685529952,1.308717623,0.1528663635,1.645514011,-4.15776062
3.707362819,8.083076149,1.089385282,0.4508210719,1.636017084,-4.270438671
4.864462478,7.33591572,0.2674314779,0.7378208637,1.38015151,-4.443840027
6.124446173,4.690730882,-0.1971183169,0.940890491,1.00806725,-4.290131092
6.52864832,1.240260173,-0.2858919943,1.018800497,0.7951477766,-3.83280921
6.192340728,-1.210781565,-0.895681304,0.9467843175,0.6030084491,-3.330183029
5.556020262,-3.29957989,-2.46785814,0.6121767759,0.001478593796,-2.878844023
4.731753212,-4.99701626,-3.031131782,0.1251902878,-0.7221915126,-2.320843458
4.09934612,-5.430894584,-2.896925557,-0.1705384254,-1.344996691,-1.721709132
3.215435626,-4.52858977,-1.864786448,-0.4119401276,-1.786172152,-1.400822401
2.4262697,-3.899633111,-1.139299652,-0.8377705216,-1.997139931,-1.418531418
2.491905663,-3.892967223,-1.007214072,-1.196949124,-1.988233805,-1.511302471
3.210995598,-3.746912154,-1.571048709,-1.169949412,-1.930865645,-1.470180392
4.120220858,-2.954585134,-1.759524431,-1.143821955,-1.903849602,-1.396019936
5.374799187,-2.170491689,-1.10064785,-1.306566596,-1.730252147,-1.432459712
6.986744555,-1.888773765,-0.9132967479,-1.303702116,-1.305413604,-1.455903411
9.070642248,-2.024744663,-1.955894268,-0.913056314,-1.178924799,-1.316618919
10.30941832,-2.161009575,-1.844052434,-0.3566591144,-1.11495769,-1.005051374
10.71496428,-2.098701295,-1.562925024,0.2850966156,-1.064618468,-0.6029156446
10.97391216,-2.44162509,0.6420479037,0.8796135783,-1.085773468,-0.3008233607
10.59769283,-3.38380248,4.479972162,0.9727925062,-0.866759479,-0.01837532595
11.15424885,-4.287388566,6.373129842,0.6122755408,-0.5267150402,0.6718290448
11.96046002,-3.101356827,6.550010842,0.3176895976,-0.3880479336,1.502004981
10.48224858,-2.48688462,4.86599977,-0.1883960962,-0.8307956457,2.152504206
8.304145835,-1.866091978,4.584969829,-0.5790910125,-1.184086323,2.807215929
6.102313251,-0.1808715309,4.697641099,-0.4165059328,-1.007211208,3.494963646
3.228765648,2.23005447,5.783766942,0.3199253082,-0.4211906195,4.685184002
1.589574546,8.532816059,11.14582004,1.553341627,2.35242939,4.883582592
2.801844303,7.623502243,6.623192982,2.169119596,4.159035206,3.134463787
3.500451422,1.998227827,-0.9554429681,0.5784786344,2.256205559,2.717932224
3.393348307,0.3290934227,-0.9759015265,-1.368212342,-0.2438669652,2.857212543
3.270468362,1.622800524,2.230531878,-2.269886255,-1.045490742,3.14769268
2.724430224,2.937082503,4.543334335,-2.070178509,-0.1716285348,3.739645243
1.776962911,4.502143077,3.728760996,-1.460088491,1.227014303,4.222430229
0.8389788813,5.511654466,0.8008180775,-1.192160368,1.915321231,4.246069431
0.08876724773,6.126766725,-1.860476476,-1.530238032,1.587957382,4.058160305
-0.995277112,6.992858654,-2.804034507,-2.027526855,0.8270790577,3.79868412
-2.336232286,7.946356479,-2.661069805,-2.302431345,0.2290247083,3.510812283
-3.997707701,8.365287409,-2.499665191,-2.213546753,-0.1909928173,3.209914684
-6.224818518,8.129543886,-2.465219901,-1.890175939,-0.4520983398,2.914260626
-7.991105721,8.265777234,-2.014149619,-1.521517754,-0.5943784714,2.557023048
-9.158637927,9.147908443,-0.9134630444,-1.159628749,-0.5155655742,2.015161753
-10.56116722,9.95970355,-0.1753507217,-0.9206224084,-0.2258866429,1.234074354
-11.93325286,9.904756154,-0.2365393499,-0.842181623,0.1135670096,0.3901356161
-12.54373921,9.521814821,-0.3234182997,-0.7502921224,0.4164638817,-0.4398208857
-12.27532559,10.23804703,-0.3644526131,-0.5367436409,0.7145110965,-1.35699904
-11.07582472,10.75012912,-0.1692591268,-0.07603645325,0.8978744745,-2.297427893
-8.79341053,11.4759054,0.6563362491,0.1915140152,1.020797014,-3.160929203
-6.384316421,13.00496089,1.127416468,0.07606054842,1.104575634,-3.971414566
-3.532805293,16.48421638,1.370420046,-0.2313025743,1.431559682,-4.802605629
-0.8554705819,16.76949345,0.4632023257,-0.1669409722,1.686380863,-5.481025696
2.648521289,16.25676137,0.02662351077,0.3320519924,1.750916839,-5.559002876
4.953852241,15.74094419,0.1973106246,1.201792002,1.708251715,-5.639296055
6.729773534,13.25248136,0.4014525564,1.890417933,1.572906971,-5.634588242
8.505233055,10.17280503,1.134642913,2.479986429,1.203179002,-5.290318012
9.363679438,6.569143997,2.72334126,2.977430582,1.056711078,-4.564950943
9.414509462,3.664691552,3.488040269,3.184034586,1.147889137,-3.519645214
8.424376142,2.137536929,2.927441106,3.189375877,1.025709271,-2.518229246
7.164644376,1.922526397,2.028093389,2.950798035,0.2295222431,-2.020682096
6.0157818,0.9831021056,1.830058542,2.27461791,-1.171173573,-2.082582474
4.884271924,-1.210654139,2.637256968,1.07487607,-2.556001902,-2.223721981
3.475426286,-3.828953308,3.80080478,-0.3612163961,-3.143180132,-2.150330067
2.451796063,-4.717456976,3.498815637,-1.499389052,-3.208324671,-2.026382923
2.196933413,-4.660368477,2.218795847,-2.071990252,-3.408841848,-1.899261236
2.101355901,-4.091678362,1.49071202,-2.461139679,-3.646259069,-2.004379034
2.760550755,-3.134395758,1.010591439,-2.978452444,-3.667483807,-2.353580475
3.968142876,-2.802451622,0.3262286809,-3.429511547,-3.542358637,-2.599321842
5.293148493,-2.775018256,-0.643209641,-3.750232935,-3.299241304,-2.545689344
6.49287032,-2.427564416,-1.849771835,-3.753112078,-3.047616005,-2.363041878
7.166426584,-2.19458159,-3.105610685,-3.487983704,-2.889613152,-2.100902796
7.453348506,-1.271266721,-3.985516912,-3.10585618,-2.712926149,-1.975532413
7.816416094,-1.043584924,-4.278468177,-2.551926851,-2.278822899,-2.015450954
9.283016587,-1.919633014,-4.642723514,-1.711141944,-1.870761633,-1.890649796
10.92332646,-3.423565751,-4.774885083,-0.8770032525,-1.74349308,-1.281357288
11.52027646,-3.733045541,-4.205020079,-0.3824753463,-1.703007102,-0.578479588
11.85868541,-2.799484589,-3.168669783,-0.1294626743,-1.401250958,-0.1458281577
13.27576754,-1.891159784,-2.100124606,0.0145274708,-0.7934740782,0.2430004478
15.16966639,-1.261824354,-1.956071524,0.2769330442,-0.03151079267,0.9235745072
15.41739145,-1.55847915,-3.193156574,0.8625205755,0.2861525416,1.988271117
13.47046711,-1.452387843,-3.812209094,1.525883198,0.2934284806,3.185617447
10.77266828,0.299328399,-2.887999907,1.979726434,0.430481106,4.041898251
9.440085802,2.80309518,-1.117622804,2.454620838,0.8791655302,4.636894703
9.155708303,5.59653289,0.8174044706,2.730268717,1.566185951,5.099847317
9.25412367,7.304175597,1.98392633,2.817028046,2.24486661,5.536792278
9.101375825,8.826629494,1.933930127,2.766652107,1.890411854,6.001059055
6.433349625,10.17839306,1.769830575,1.696689844,1.231797338,5.765653133
3.853344238,10.66322942,0.1957753778,0.03961761296,0.09868905693,4.942254543
2.027381441,9.688637369,-0.7831228463,-1.156378508,-1.143029928,4.26363802
0.9051467592,8.805834543,-0.6325009077,-1.290822983,-1.904887438,4.025232315
-0.5301081625,7.947672822,-0.08928454961,-0.7153709531,-2.277754545,4.20768261
-2.499921212,8.75682589,1.207296353,-0.06556586176,-2.10111165,4.283044338
-4.884306411,9.404294357,2.499348965,0.3215079308,-1.47339654,4.075550079
-7.163727262,9.111449475,2.538300334,0.5925316811,-0.8888129592,3.752717257
-9.919206704,8.354711655,1.894772129,0.7489673495,-0.6014614105,3.413597584
-12.28920448,8.603695183,1.690795325,0.811940372,-0.5643187761,2.858185291
-13.52250592,10.00386769,3.01845964,0.8058209419,-0.3050388098,1.853329659
-14.18432382,9.529415359,3.679335871,0.7032260299,0.07869414985,0.8023177385
-13.08538759,9.993161583,4.238855713,0.3798176646,0.4333842099,-0.1451560557
-11.81302606,9.448791086,4.241385232,-0.07034291327,0.8147062659,-0.9137288332
-11.05228953,7.909370857,2.43990192,-0.5087332726,0.8689123392,-1.283887386
-10.8637251,7.546178765,0.5683811945,-0.8524380922,0.5267494917,-1.43040061
-11.02083991,8.902259028,-0.2682686594,-0.9352604747,0.1280373484,-1.886858463
-10.65813823,10.21358596,0.2860448468,-0.7213016748,-0.01381538901,-2.697092772
-8.541475166,11.06194466,1.630681632,-0.4333098829,0.2249831855,-3.566173315
-5.789662429,10.80476204,2.72038241,-0.3819079995,0.7814404964,-4.120993614
-2.461159812,10.77460656,2.788591731,-0.5107507706,1.255930066,-4.179323196
0.4992886613,12.1548381,1.808532939,-0.7447535396,1.357126355,-4.064239025
2.847560929,14.19529646,0.8837997276,-1.052664757,1.122522235,-4.10106945
4.653922954,15.29440921,0.1936395348,-1.002399445,0.7639911175,-4.431733608
5.404482962,13.36061557,-0.5697004604,-0.5952207446,0.3974826634,-4.636085987
6.279413447,10.66739589,-0.001047463226,0.1157697663,0.2802565396,-4.487510204
6.914048152,8.105848537,1.197250175,0.9754109383,0.4633573592,-4.086433411
7.320169869,6.600609394,2.30351455,1.649127483,0.6093902588,-3.642400503
7.450249955,5.525188486,3.163742556,1.81527245,0.6174149513,-3.448448658
7.47101568,3.986193788,2.404345161,1.436885238,-0.08332522213,-3.476135254
7.091786645,1.384074185,1.568119085,0.4523156285,-1.326078057,-3.586661577
5.933562951,-2.16906604,0.7527306307,-0.9147500396,-2.544365168,-3.36953187
4.390151606,-3.816325298,0.3260556624,-2.078164101,-3.291898966,-3.010784626
3.451799912,-3.52301689,-0.06747282303,-2.655560017,-3.456554174,-2.91296649
3.156365597,-3.245717367,-0.3926867739,-2.775038242,-3.16946578,-2.905627728
3.862075241,-2.92181333,-0.9482315755,-2.672976971,-2.565890312,-2.869959831
4.712348255,-3.272421249,-1.936995652,-2.504763842,-1.990049958,-2.647830009
5.796356959,-2.662008547,-2.916401534,-2.333175182,-1.567124724,-2.313179255
6.349446184,-2.117255189,-4.333693221,-2.14580965,-1.495309234,-1.996468186
6.949387761,-0.8796452382,-5.365967061,-1.952762485,-1.951007962,-1.909523487
7.584705187,-0.5463730686,-5.631038386,-2.096732616,-2.398470163,-2.011893034
8.486855103,-1.235747079,-6.206396726,-2.412366867,-2.677262545,-1.980651379
9.015877223,-1.950772833,-6.703595137,-2.547507286,-2.755891562,-1.518112779
8.610155904,-1.468453427,-7.140169276,-2.252429724,-2.663891554,-0.9773666859
8.256443003,-0.1924216835,-6.953211703,-1.786839485,-2.170970201,-0.7725211382
8.10306446,-0.04610884022,-7.186112696,-1.155403256,-1.610927939,-0.6894118786
8.68724908,0.3380412838,-6.857985488,-0.4334679246,-1.085382581,-0.5176546574
9.573400047,0.673010905,-6.36235535,0.3724060953,-0.3431248367,-0.3161315322
11.58844574,1.557915087,-5.256150011,1.269626975,0.6297008991,-0.01367463171
13.02138595,0.9808692319,-4.864370708,2.141341686,1.672462702,0.5913037062
13.6078695,-0.1532955417,-5.461289138,2.825467587,2.05488348,1.746356249
12.82959029,0.6154810916,-5.183356578,3.411146879,1.925740242,2.908888102
10.23576856,0.9961877971,-4.358801943,3.83846879,1.881738067,3.954805136
7.218123453,1.727300762,-4.420304752,4.119121552,1.155802131,5.052267075
6.395691217,6.772724203,-1.614808648,3.848043442,0.445489347,5.268606186
5.585393072,10.28008935,1.19926736,2.998445511,0.1227037609,4.475600243
4.641611169,10.80042606,3.522317217,2.051357746,0.3921947479,3.517631054
3.12728388,8.050533477,3.844199685,1.819004059,1.057164907,3.625528574
0.982751977,5.892951539,4.212138679,2.401930571,2.199815035,4.322343826
-1.110057922,5.616407219,3.715899176,2.938596249,3.625014544,4.821899891
-2.664400995,5.939249764,1.521827874,3.193878889,4.262711525,4.89235878
-3.940737275,7.202063714,-0.1530003582,2.871873379,4.133919239,4.379093647
-5.31136278,6.851511324,-1.321843354,2.123379946,3.28985548,3.460878134
-5.604404646,5.82152121,-1.326000766,1.085210562,2.285317659,2.614485979
-5.179180169,4.571166637,-0.8308090189,0.2286137193,1.331595063,2.127061129
-5.049017081,3.240334213,-1.048396708,-0.5613692999,0.3730060756,2.063540459
-5.750391326,3.377567093,-1.211864684,-1.422199368,-0.3420716524,2.100093842
-6.577763356,4.684078146,-1.4418834,-1.996979713,-0.7652287483,1.988332152
-7.431955589,6.048313366,-1.499806597,-2.036789894,-1.032433033,1.858462095
-8.944706423,6.629460226,-1.575020535,-1.706174612,-1.151142836,1.677927375
-10.94631571,7.123870467,-1.741544976,-1.289000511,-1.247828126,1.371200085
-12.18755379,8.399837913,-1.015080714,-0.9392056465,-1.11053133,0.7166671157
-12.87130294,8.796353598,0.09971826534,-0.6094765663,-0.6802322865,-0.1884408146
-11.97923135,9.1637145,0.8113681131,-0.3533356488,-0.2947414815,-1.092896938
-10.09930141,9.025531187,1.424808346,-0.3250415325,0.0970620811,-1.926046491
-7.859629213,8.833793979,1.487438406,-0.72556144,0.5831390619,-2.38893199
-5.512065385,10.33891914,0.5290516391,-1.347313881,1.10164392,-2.665826797
-3.418839307,11.83737841,-1.43955145,-1.512458086,1.163310528,-2.94517684
-1.49190503,13.2375667,-2.838283106,-1.188668847,0.7279722691,-3.298313856
-0.7587596817,12.1987088,-3.629798517,-0.6155290008,0.1740314066,-3.778049469
-0.09876841727,9.847964007,-3.304732451,-0.1043866873,-0.2715536356,-4.009062767
0.8284604099,8.135581997,-2.390359306,0.4250053465,-0.5908110142,-3.957343102
1.728579112,7.096044303,-1.137718667,0.9475178719,-0.8312908411,-3.760247707
2.359036239,6.697432523,0.5463379972,1.071436167,-0.8217112422,-3.548760414
2.737820452,6.304934842,1.295845282,0.7621329427,-0.7091462612,-3.479402065
3.236877642,5.993979133,1.076267588,0.2767909765,-0.7470647693,-3.609688759
3.592843874,4.604889166,0.3782195649,-0.2503527701,-0.9867072105,-3.861480951
4.214226591,2.707652693,-0.1833215544,-0.6032932401,-1.201984763,-3.998857021
5.03609564,1.793422463,-0.3862979497,-0.8286626339,-1.247503281,-3.968900681
5.997910043,1.265739482,-0.3494529046,-0.8916829824,-1.047283411,-3.891927958
6.926657458,-0.02642974176,-0.7767492196,-0.6971919537,-0.9234870076,-3.698502779
7.459041164,-1.592297249,-1.17203887,-0.6048633456,-1.066778541,-3.283597708
7.843222268,-2.272646826,-1.491475991,-0.8151587844,-1.369157195,-2.907511711
8.253965215,-2.479633626,-1.938152713,-1.147245288,-1.961487174,-2.701566935
8.497297586,-3.027607115,-2.204696156,-1.618433118,-2.612256289,-2.601027966
8.864009084,-3.692151805,-2.489103757,-2.122242451,-3.175741673,-2.37170887
9.56154945,-2.885420412,-2.741682972,-2.465707064,-3.564502239,-2.133630991
10.26948378,-1.825131607,-2.848271708,-2.470136166,-3.543011904,-2.06238699
10.98379759,-1.997278564,-2.492480833,-2.187516451,-2.817489624,-1.976461887
11.78562368,-3.14431451,-2.985989157,-1.676681876,-1.75333035,-1.53848815
12.47600014,-3.475786936,-3.69033102,-1.089839697,-0.7054735422,-0.7295161486
13.20567518,-2.135105903,-4.477840411,-0.4586561918,0.2175007761,0.03035694547
13.74583186,-0.9373100762,-5.068783273,0.3335576952,0.878153801,0.6081090569
14.7237136,-0.02393734043,-5.172315544,1.031602502,1.315066576,1.224392176
15.43394861,0.4123837003,-5.227473367,1.588459015,1.313626647,1.96436429
14.71415082,-0.06887421426,-5.005159235,1.916095138,0.8593400121,2.772087574
12.565273,-0.3131108406,-3.816479611,1.978936553,0.6145011187,3.640722036
10.38174472,0.890506824,-2.285671143,2.126873016,0.9596415162,4.480210781
9.075779611,3.274583396,-0.7689440988,2.457140684,1.870936394,5.171081543
8.726920581,6.135621062,-0.2496908001,2.724804163,2.839074612,5.637022495
8.356365851,8.276789626,-0.0883177504,2.760284901,3.643033028,5.944741726
7.609847227,9.438902729,-0.07563830157,2.589314222,4.371112823,6.124740124
6.434787549,9.498255082,-0.8182733624,2.27965188,4.883538246,6.177951813
4.932490889,8.999253421,-2.16355809,1.770057559,4.915404797,6.04974556
3.540322829,8.326925237,-3.898065423,1.179097056,4.271343231,5.800228119
2.185245606,8.113418096,-5.290339866,0.5148152709,3.028430939,5.44627285
0.561273116,8.197289973,-6.232635914,-0.1327065825,1.207777739,4.981734753
-1.237557344,8.000569715,-5.340040593,-0.8216594458,-0.3978379965,4.428829193
-2.9644127,7.51449534,-4.142628213,-1.390651464,-1.441578388,3.955379248
-4.878755791,7.415682499,-3.132439363,-1.680194616,-1.937387824,3.55295372
-6.759252727,8.046315567,-1.908110919,-1.648351192,-1.919620395,3.112611771
-8.550569742,8.644836172,-0.8639952491,-1.424685955,-1.451822042,2.574144125
-9.70285411,9.261372325,-0.6735019034,-1.302729845,-0.8025476336,1.977676749
-10.46773724,9.638665423,-1.081850649,-1.243317485,-0.2332968116,1.252515674
-10.99380461,9.269362155,-2.139331704,-1.155306697,0.05269534513,0.6041001081
-11.05833816,9.26822526,-2.786464071,-0.9369724393,0.1490001231,0.01142119057
-10.98547049,9.323982219,-3.114289666,-0.5940492153,0.113414973,-0.591462791
-10.56997947,9.56868354,-2.724104353,-0.2264448702,0.04622862116,-1.279888391
-9.563022445,9.980824664,-2.11607387,0.05197772756,-0.09263890237,-1.983949304
-7.856867931,11.11828205,-1.173905248,0.01957398839,-0.167423442,-2.684600592
-5.51402178,13.10449328,-0.4441226544,-0.3170238435,-0.0163028203,-3.363955498
-2.974368862,14.22512812,-0.2436816229,-0.3656800687,0.3029391766,-3.970607519
-0.2233487367,14.98368322,0.08387246143,0.02087812684,0.6031820178,-4.356455326
1.860623191,14.18834416,0.3881599442,0.6821891069,0.9005532861,-4.598852634
2.814529013,11.33369239,0.08927987343,1.188073993,1.21318531,-4.621396542
3.662256433,8.399184418,-0.3626169221,1.625974178,1.322247386,-4.302769184
4.260498805,6.410874758,-0.6961304993,2.100644827,1.047542691,-3.686030865
4.380191937,5.519235715,-0.3225713274,2.395661116,0.6055433154,-3.106536388
4.05112891,5.316373302,0.05561316615,2.339938879,0.049983982,-2.846250057
3.501099072,4.291232966,0.3474363041,2.00197649,-0.5454047918,-2.881180763
3.120029963,2.488172906,0.5795517001,1.482887626,-1.087758183,-3.052133799
3.162495771,0.6219143395,0.7546244816,1.038155317,-1.70897913,-3.100485802
3.069828008,-0.8275351118,1.320719319,0.5259926915,-2.155358791,-3.087538242
3.128480688,-1.346857676,1.876668025,-0.0606822148,-2.232622623,-3.101458073
3.719022569,-1.399483936,2.159184405,-0.4339394569,-2.137879848,-3.16576314
4.423618699,-1.658228395,2.095640446,-0.6906391382,-1.860760212,-3.24024868
5.438173635,-2.115461291,1.606079398,-0.9072858095,-1.43938601,-3.204596519
6.747237879,-2.204643549,0.6766527686,-1.030886412,-1.173960805,-3.069676399
8.19092979,-2.070315158,0.009720599025,-1.081431627,-1.138655186,-2.902975321
9.763015441,-1.906506406,-0.6560787672,-1.100339651,-1.268935442,-2.701946974
11.11157174,-2.220021151,-1.31706518,-1.077185035,-1.598352075,-2.394699812
11.96393559,-2.888966707,-1.590481431,-1.073315859,-1.976521015,-1.980771542
12.36470484,-3.180235718,-1.368135734,-1.032371402,-2.114596367,-1.561335444
12.57510349,-3.552635783,-1.092999235,-0.8327617645,-1.931050539,-1.050627589
12.31601299,-3.991550347,-1.024941598,-0.4066483378,-1.491778255,-0.3787123561
12.03825871,-3.406245783,-0.5525643244,0.1087725833,-0.8559259772,0.2815180719
12.42023325,-1.986889272,0.04178746989,0.5015686154,-0.09337089211,0.7238897681
13.78355574,-0.3394230935,0.9432809673,0.8329880834,0.7378274202,1.075293183
15.0790316,-0.1267506492,1.570707056,1.049061298,1.564661264,1.678497434
14.82829041,-1.198424772,1.028840067,1.061295271,2.083094835,2.656363249
13.1284879,-1.038291493,0.05707827027,0.7937939167,2.272405863,3.627297878
11.65616844,0.9899942032,-0.1719584489,0.5407314897,2.440641403,4.365359783
10.79244383,3.98404041,0.2368561607,0.6228218675,2.875020742,4.915279388
10.3723234,6.55380848,0.6638987933,0.9069963098,3.568805933,5.352126122
9.719943776,8.165661493,0.5040004923,1.106340051,4.366314411,5.72350502
8.437135086,8.610216109,-0.8920888325,1.027564168,4.794415951,5.919806957
6.597476357,8.731515507,-2.993945961,0.6912998557,4.573062897,5.773720741
4.664610352,8.719528717,-5.114668242,0.1541352719,3.528194427,5.226759911
2.882814029,8.292081888,-6.500449231,-0.5547045469,1.74475956,4.558432102
1.173614741,7.463841842,-5.986880115,-1.154705167,-0.07201514393,3.974571705
-0.5190741427,6.454157435,-4.565025358,-1.577998757,-1.235908031,3.512352705
-1.901666565,5.568192931,-3.165477417,-1.869550943,-1.664437175,3.232076406
-3.187498987,5.052971956,-2.563099845,-2.03402257,-1.571470261,3.180459499
-4.573471114,5.538133308,-2.651660172,-2.020701647,-1.222558379,3.208600283
-6.098507429,6.909261502,-3.275323985,-1.900740266,-0.8668494821,3.031527996
-7.111592585,8.711803091,-3.639508595,-1.838859081,-0.5784084201,2.536681652
-7.58604608,10.43567154,-3.708594406,-1.725383401,-0.196418196,1.844847322
-8.185036056,10.60327735,-4.426266583,-1.484642625,0.211462453,1.180115223
-8.678905615,10.46282024,-5.420727995,-1.213082552,0.5053277612,0.6349207759
-8.600362239,10.7077618,-6.226328338,-0.7862243652,0.6645125151,0.1168691292
-8.398172026,10.09947092,-6.732897219,-0.0531921722,0.5933656693,-0.2741100192
-8.30338771,9.136170075,-6.030656713,1.026484609,0.3224583268,-0.5326145887
-8.461117435,8.95331643,-3.883048471,1.675161242,0.07912647724,-0.7360326648
-8.381300386,10.21636244,-2.153749228,1.535609961,-0.2250052541,-1.11840415
-7.684788194,12.00290566,-1.191201251,0.8524831533,-0.5315904617,-1.853571534
-6.221562146,12.65712828,-0.6618284167,0.2621065676,-0.8473703861,-2.781017065
-4.233189358,11.90271861,0.1554483359,0.1726669818,-0.89656955,-3.33296752
-2.585182497,10.94988363,1.070733043,0.4413292408,-0.5985005498,-3.527106762
-1.253960197,10.59466383,1.538956704,0.7756925821,-0.1080438718,-3.556499243
-0.1319318512,10.42134257,1.31019471,1.119436264,0.2733298838,-3.631679058
0.8125807037,9.449090946,0.5680813348,1.427730918,0.3351128697,-3.73753643
1.716180818,8.40604729,0.07450257554,1.514340043,0.1165620908,-3.770432949
2.402997546,7.314908588,-0.1899205143,1.410742402,-0.2654942572,-3.857133627
3.201677734,6.187585058,-0.1677493068,1.260546446,-0.7451583743,-3.979932785
4.174188303,5.053101135,0.06461947943,1.202167034,-1.395952106,-4.173835278
5.020501765,3.150797442,0.4616726319,1.137304425,-2.223040104,-4.418673038
5.537661014,0.4665016595,1.530600963,0.7050392628,-2.799667597,-4.478001118
5.549409904,-2.143974269,2.330159396,0.004342755303,-2.786710739,-4.190289497
5.524868753,-3.165399383,2.994377046,-0.3854103684,-2.072260618,-3.742732525
5.74715249,-3.229295809,2.609620773,-0.347438544,-1.160797834,-3.319956541
6.49040013,-2.864826537,1.132632742,-0.2369223237,-0.7335797548,-3.020539761
7.572742947,-2.26536193,-0.223698573,-0.4372880161,-1.049731493,-2.893131018
8.869483716,-1.929924106,-0.7540287077,-0.9913471937,-1.682996988,-2.777837515
10.44935754,-1.379946876,-0.9666030984,-1.552558422,-2.402173519,-2.536061049
11.924139,-0.3149550072,-1.521983065,-2.05785656,-3.297454357,-2.254151344
12.60600366,0.262612241,-2.347738015,-2.655421019,-4.065060139,-2.227859497
12.95170393,-0.8849491899,-3.755844233,-2.981697083,-4.693732738,-2.207567453
12.84470954,-3.022871904,-4.591440486,-2.708508253,-5.401642323,-1.749323606
11.85950257,-4.267572689,-3.54523632,-2.158675909,-5.489846706,-0.9984449148
10.68650041,-3.386931426,-1.974495654,-1.439166188,-4.66910553,-0.3923548162
10.28160794,-1.558850322,-0.7671347113,-0.7137144804,-3.458321095,-0.0006445380859
11.21777469,0.4572603684,0.4040682919,-0.3238744438,-1.818568468,0.25357005
13.43651223,1.334797821,0.005523731858,-0.009202643298,-0.1633957773,0.6198567748
14.76161166,0.04949439101,-2.376224982,0.5599092841,0.4766687155,1.455271721
13.21358376,-2.318924593,-4.166230038,1.164381266,-0.05793133005,2.74191761
10.53225677,-1.450036896,-3.19657515,1.508765101,-0.5472044349,3.824719429
8.614020178,1.202589491,-0.8417050914,1.883976579,-0.6766645312,4.535432339
7.31605425,4.68004816,2.534402158,2.184055567,0.1093855351,5.002977371
6.690327659,7.419045254,4.952144268,2.454229116,1.939420342,5.463273048
6.681417792,8.723685252,4.873691494,3.075929403,3.633582592,6.177081585
5.642324335,8.839235877,3.590732874,3.293801308,4.562228203,6.79126215
3.710746616,9.785928114,1.791902706,2.411771774,4.661954403,6.652481079
1.615545438,10.65446861,-1.3563772,0.9013090134,3.426894426,5.843600273
-0.7353817287,9.498274956,-2.618650467,-0.3603616059,1.622258067,5.049227238
-2.599052617,8.196177043,-2.264058154,-0.95422858,0.2343181819,4.508090973
-4.293644704,7.231469841,-1.650168715,-1.008679748,-0.5015771985,4.13173914
-5.996763796,6.652749331,-1.380108789,-0.8570149541,-0.7867358923,3.779721975
-7.682107577,6.447599684,-1.322611708,-0.7281964421,-0.9494820833,3.352073431
-9.084831517,7.274342184,-0.9178609871,-0.7946138978,-1.087801576,2.907490492
-10.75030798,7.394212426,-0.5790455041,-0.9140197635,-1.105888724,2.23305583
-12.2173796,6.945164006,-0.7800058833,-1.117979527,-1.135125875,1.499651194
-12.95087274,7.461945653,-0.3548001109,-1.39519608,-1.033460736,0.6783332229
-12.6039777,8.344971766,0.3506558507,-1.504733324,-0.5862421393,-0.1615393758
-11.7622428,8.519446874,0.5436442281,-1.412748933,0.1020646542,-0.8980825543
-10.45523315,8.419825639,-0.2280781033,-1.195168853,0.786038518,-1.515022278
-8.597964531,8.863528023,-1.167340483,-0.8770753145,1.214537263,-1.965563416
-6.833364257,10.04195162,-1.593429175,-0.4605267942,1.284127116,-2.236331224
-5.724592868,11.99637655,-1.827667263,-0.2719479203,0.9989340305,-2.658860683
-4.585740813,14.70197523,-2.51194132,-0.6444526911,0.3477752507,-3.395672321
-2.700972776,17.47573151,-2.309669858,-1.051118731,-0.2508989871,-4.573735237
-0.08820201507,17.98759499,-1.881875238,-0.9328449965,-0.6841649413,-5.623855591
2.355067335,16.1533349,-0.6092533031,-0.3321605921,-0.7424226403,-6.253918648
4.414429138,13.06861181,0.9160358175,0.5005108714,-0.5107476711,-6.13961935
6.226662685,11.71674362,3.112930068,1.393892169,-0.1477321386,-5.60230875
7.808315205,10.5792196,5.844898579,1.973251939,0.4499313235,-5.121195793
8.523184892,8.027853444,6.881883666,2.018013716,1.097574472,-4.739635944
8.523872289,3.878088803,5.703597426,1.710958362,1.205085635,-4.35525322
7.756897153,0.1451414614,3.47617652,0.8760463595,0.7949108481,-3.865232229
6.85964027,-1.870591628,0.7757654693,-0.1514938772,-0.01163820736,-3.398040295
6.117769764,-2.362102056,-1.265358666,-0.8580198288,-0.9906698465,-3.071374893
5.281597172,-2.6815912,-2.043559838,-1.10013926,-1.739804029,-2.926041126
4.803880583,-3.023483898,-2.147029857,-0.9756730199,-2.182548761,-2.812708378
4.462691357,-3.170423933,-1.774393061,-0.6917111874,-2.556219101,-2.75772047
4.465710997,-3.224123375,-1.014450015,-0.7024367452,-2.755799532,-2.856569052
5.075805719,-3.445072065,-0.3329340238,-0.9917238951,-2.792125225,-2.997861862
6.045895783,-3.69313614,-0.1697083319,-1.375062346,-2.869652271,-3.091456413
7.297938164,-3.705750123,0.02406125907,-1.852514148,-2.811981916,-3.072984695
8.629792917,-3.551998654,-0.6127911218,-2.234192848,-2.506454945,-2.910158873
10.21313237,-2.692505392,-1.666862953,-2.326107502,-2.031767368,-2.656930447
11.9132365,-1.651166786,-2.847115524,-2.003037214,-1.579034805,-2.271847725
13.00633101,-1.596184904,-3.824068459,-1.469694376,-1.261888504,-1.659925938
13.32954706,-1.682756103,-4.971194421,-0.9225137234,-1.298039198,-0.9211975336
12.77890406,-1.900679892,-5.762120927,-0.3012198806,-1.741071343,-0.2191355973
11.76346913,-1.684360031,-5.339520369,0.3198454082,-2.372264862,0.2952907979
11.11653199,-1.131986261,-3.645225804,0.8347607851,-2.853910923,0.4965201616
11.61195521,-0.07009469597,-0.8044570185,1.072882175,-2.804210663,0.6240651011
12.448634,0.3741746734,1.503287424,1.132358432,-2.188642025,0.8928820491
12.74642452,-0.9641115739,2.321939557,1.348818541,-1.365309477,1.605973363
11.51792551,-2.538651048,1.72601423,1.699564815,-0.8350850344,2.837118864
9.499892328,-0.7537129197,1.719184968,1.795443773,-0.431006968,3.856507301
7.810722851,1.933687258,2.237488419,1.717950821,-0.1310786456,4.492947578
6.758316907,5.254218167,3.226254249,1.358999848,0.3137009442,4.73647356
6.495324727,8.660371595,4.26917691,1.234549403,1.246882677,4.81270504
6.705211925,9.699671388,4.483467603,1.797858,2.621536255,5.119834423
6.251968975,8.556905375,3.317754137,2.356015921,3.588249207,5.722746849
5.265251017,7.893616238,1.03126554,2.063099861,3.586188793,6.099572182
3.820545546,8.100581411,-0.7176818214,1.037972331,2.358346224,6.065790176
2.149291665,8.441204528,-0.6130640936,-0.2732037902,0.3535252512,5.795524597
0.3044032181,8.592191208,0.8870107986,-1.504563212,-1.249293804,5.386399269
-1.313392045,8.82714095,2.256051081,-2.136807203,-1.894638181,5.021976471
-3.03536489,9.428076799,2.629403332,-2.024540186,-1.737976789,4.672492027
-4.671068734,9.584554478,2.29606365,-1.375087738,-1.224796653,4.361721039
-6.26926907,9.272910788,1.650553331,-0.7658609152,-0.7653518319,4.049987316
-7.859765991,8.868964661,1.132095858,-0.5927391052,-0.4432115853,3.691735506
-9.727333302,9.063863548,0.6428033983,-0.7226560116,-0.3283373117,3.136708021
-11.18945343,9.420335391,0.3244701468,-0.8245883584,-0.2887869477,2.286107779
-11.97893208,9.452980354,0.3311395416,-0.7703877687,-0.3609389961,1.345686555
-11.96806932,9.79538977,1.181567745,-0.7636918426,-0.2775282562,0.33130005
-11.02789626,10.26076506,2.12552179,-0.8610642552,0.1822387576,-0.6748571992
-9.179116067,10.77358832,2.600808813,-0.6705351472,0.8749996424,-1.492281556
-7.377279996,10.26579545,2.255050087,-0.2575349212,1.473004818,-2.124411821
-5.832538864,9.799787713,1.205655892,-0.01379201002,1.718224168,-2.602582932
-4.464653012,10.253607,0.2447439914,-0.2456142306,1.567981601,-2.91631484
-3.754512692,11.26173307,-0.7241530632,-0.7635534406,1.227682233,-3.438393116
-2.780008904,12.04496902,-1.451645208,-0.9866922498,0.7903800011,-4.032957077
-1.84927353,12.62012921,-1.64388832,-0.7617766261,0.4484392703,-4.606222153
-0.8267465917,12.45613575,-1.382216574,-0.3299049437,0.3548508286,-5.099530697
0.4175222322,11.91603986,-0.6023574061,0.2759782672,0.4732926488,-5.425218105
2.024734726,10.99550323,0.3455009521,0.9438337088,0.5206794739,-5.600547791
3.77537837,9.801383458,1.324516957,1.388738632,0.3953870833,-5.624230385
5.153094126,8.75723564,2.131268517,1.329371572,0.213454172,-5.607831001
6.31790246,7.376673847,2.178448493,0.8172873855,0.05755538493,-5.596409798
7.357862179,5.32525102,1.443168764,0.4104133248,-0.2852053642,-5.496277332
8.15949771,3.198329008,0.9244020793,0.223049283,-0.821906805,-5.218038082
8.506428987,1.055261333,0.540737693,-0.06921286136,-1.365289569,-4.802522659
8.237990816,-1.215686288,0.206660929,-0.4754566252,-1.711584806,-4.329905987
7.497320918,-3.090861152,-0.6203150876,-0.8513517976,-1.983135343,-3.661848545
6.438789185,-3.738209792,-1.176207972,-1.088147998,-2.223778725,-2.942653894
5.792281087,-2.560979199,-0.9302075507,-1.289912939,-2.372625351,-2.480867863
5.600272076,-1.593252942,-0.7473556596,-1.506772041,-2.446008444,-2.389755487
6.20448417,-0.8681418474,-0.5715247532,-1.860160351,-2.489192247,-2.460886717
7.116099249,-0.4603285238,-0.7982119866,-2.334070683,-2.425375462,-2.454860926
7.872845253,-0.2287918045,-1.761835777,-2.707745075,-2.160132885,-2.264139414
8.614773627,0.5042395617,-3.161328773,-2.742789268,-1.938033342,-1.960874677
9.009924453,1.23031804,-4.4027387,-2.450683832,-1.732021809,-1.76155889
9.234270968,1.391598735,-5.538416801,-1.985810518,-1.551903486,-1.753196239
9.404905183,0.7150865442,-6.012777942,-1.492740631,-1.235264421,-1.748786926
10.11230468,0.1080769284,-6.032296881,-0.8837790489,-0.8253208995,-1.533296108
11.32175763,-0.1689046143,-5.709006007,-0.1329708695,-0.2557385564,-1.167786717
12.87587741,-0.2683393865,-5.16194028,0.6871744394,0.41995731,-0.7518846393
14.69680923,-0.5940805761,-5.022777309,1.302923918,0.9562913775,-0.1773422509
15.25163039,-2.14150291,-4.942254742,1.856886864,1.098208547,0.7576313615
14.20179985,-3.383898926,-4.542189256,2.431734562,0.9511400461,2.084081411
12.64449559,-2.718706001,-3.115723206,2.872005701,0.9418922067,3.468321562
11.20688271,-0.5770195512,-1.404520761,3.074971914,1.362816453,4.700957298
10.58815109,2.989679828,0.3748603176,3.009522438,2.302171946,5.639226913
10.06597314,6.219136965,0.4526391383,2.722298622,3.263075352,6.264848709
9.876282924,9.151955673,0.008244096732,2.341746092,3.91001749,6.685255051
8.853580629,10.55464045,-1.349540047,2.384164333,3.860195875,6.979218006
6.651206778,10.95240877,-1.895719639,2.204668045,3.782740831,6.954363346
4.256683631,11.44712705,-2.534430215,1.767193675,3.708971024,6.509818554
1.83424138,11.00411323,-3.000749504,1.27670002,3.432488918,5.809273243
0.2195002445,9.516777412,-3.094114893,0.8750418425,3.01680851,5.241863251
-1.354028006,7.804909196,-3.247918092,0.5073026419,2.299567938,4.946276188
-2.997619973,7.364219439,-3.78797131,-0.1577107608,1.567203164,4.592716217
-4.427150088,7.66791597,-4.764631984,-0.8365443349,0.6224533916,4.044608593
-5.383849924,7.780671996,-4.657086386,-1.258814573,-0.1610863358,3.455556154
-6.228668764,7.656011012,-4.086678362,-1.303732157,-0.5709255934,3.002843857
-6.857398044,7.867423812,-3.520310553,-1.207487583,-0.6153209209,2.701148987
-7.260889997,8.997844139,-3.212842102,-1.060725927,-0.4191805124,2.341454268
-7.623686952,9.999428826,-3.300410496,-0.8573004603,-0.1411430985,1.814554214
-7.950587249,10.25479475,-3.710551385,-0.4713537395,0.005021540448,1.185375214
-8.268810318,9.251821238,-4.038575133,-0.02915338241,-0.05487154052,0.6206837893
-8.614808113,8.096112741,-4.162643996,0.3090215325,-0.3060171008,0.1998104006
-8.536081198,8.210866663,-3.496903374,0.4639806747,-0.6735354662,-0.2167440951
-8.101018049,9.545594925,-2.453229603,0.3629826903,-1.040923834,-0.7761213183
-7.497845819,11.0441296,-1.86094234,-0.1047410294,-1.311444998,-1.481300354
-6.713351976,12.32559681,-1.67998693,-0.6790488958,-1.4715451,-2.400386572
-5.25542462,13.08161509,-1.937261025,-1.008088231,-1.632713437,-3.357521296
-3.413285764,13.30331255,-1.821507571,-0.9869775772,-1.856140018,-4.178734779
-2.022776578,12.24350422,-1.014470765,-0.7870001197,-1.923511386,-4.822387218
-0.8323796292,10.52821305,0.3297688377,-0.4432583153,-1.589240432,-5.204349518
0.3245598709,8.851075953,1.415036602,0.1490561515,-0.9373520017,-5.274539471
1.942349873,7.561090503,2.360776068,0.8740161061,-0.2608375549,-5.121786594
3.364403368,6.212338976,2.37056301,1.145398021,0.1274011135,-4.828993797
4.551752034,5.088319164,2.029426391,0.9364103079,0.2838090062,-4.563496113
5.363182984,3.908685017,1.550996686,0.6809380054,0.363573581,-4.325454235
6.00480857,2.136045229,0.9537187747,0.6978141665,0.4236099124,-3.976652384
6.076609486,-0.01735094777,0.793447841,0.7888439894,0.5664514303,-3.466243982
5.781956093,-1.750806726,0.8912126342,0.8485668898,0.7475592494,-2.820117712
5.129550753,-2.31670984,0.2830877506,0.6239947081,0.5129997134,-2.308481693
4.482558671,-2.212670204,-0.4622817037,0.003600229975,-0.1346202791,-2.006794453
4.258462331,-1.335044489,-0.8022226836,-0.7414533496,-0.9793561697,-1.966893792
4.497868761,-0.8106558731,-0.8286424885,-1.303072691,-1.748553157,-2.106066704
4.8914972,-0.7457014627,-0.8603671218,-1.600897193,-2.27861619,-2.198900938
5.487678547,-0.3641834408,-0.8651181157,-1.632055879,-2.636903048,-2.236322641
5.986254676,0.320170696,-0.6145332893,-1.506584287,-2.808618069,-2.312134027
6.547278786,0.5990799919,-0.1969748167,-1.364408255,-2.700864077,-2.443301201
7.918533822,0.3079688016,0.1701405858,-1.145794153,-2.403138399,-2.522138357
9.118135236,-0.3384288218,0.0759141959,-0.9185497165,-2.194293261,-2.363938808
10.03599184,-0.880359524,0.3301394246,-0.7083328962,-1.742767453,-2.026532888
11.28851353,-1.099647003,0.3395540264,-0.3088852465,-1.164777756,-1.577319145
12.81407474,-0.7228016486,0.6565911006,0.1862431765,-0.5488203168,-1.002205014
14.15470375,0.2138578547,1.073693354,0.7480452061,0.1249749064,-0.5442495346
13.61745566,-1.508694252,0.8896209811,1.392361999,0.7350474,0.02621890604
11.70632977,-4.680153373,0.7569231139,1.872470737,1.361689091,1.174824357
10.10219596,-5.566896461,0.4399646579,2.124243259,1.800210238,2.539103746
